,subj_idx,response,split_by,rt,trial,feedback,samp,type
0,1,0.0,0,0.979,1,0.0,0,observed
1,1,0.0,1,1.553,1,0.0,0,observed
2,1,1.0,0,1.939,2,0.0,0,observed
3,1,1.0,1,0.35,2,1.0,0,observed
4,1,0.0,0,0.768,3,0.0,0,observed
5,1,1.0,1,0.322,3,1.0,0,observed
6,1,0.0,0,1.271,4,1.0,0,observed
7,1,0.0,1,0.412,4,1.0,0,observed
8,1,1.0,0,1.929,5,1.0,0,observed
9,1,1.0,1,0.181,5,0.0,0,observed
10,1,0.0,0,1.25,6,1.0,0,observed
11,1,1.0,1,0.17,6,0.0,0,observed
12,1,0.0,0,1.072,7,0.0,0,observed
13,1,0.0,1,0.441,7,1.0,0,observed
14,1,1.0,0,1.919,8,1.0,0,observed
15,1,1.0,1,0.219,8,0.0,0,observed
16,1,1.0,0,1.471,9,0.0,0,observed
17,1,0.0,1,1.0,9,1.0,0,observed
18,1,0.0,0,1.174,10,1.0,0,observed
19,1,0.0,1,0.879,10,1.0,0,observed
20,1,0.0,0,0.314,11,0.0,0,observed
21,1,0.0,1,1.007,11,0.0,0,observed
22,1,0.0,0,0.549,12,1.0,0,observed
23,1,0.0,1,1.221,12,0.0,0,observed
24,1,1.0,0,1.142,13,0.0,0,observed
25,1,0.0,1,0.19,13,1.0,0,observed
26,1,0.0,0,2.011,14,1.0,0,observed
27,1,0.0,1,1.031,14,1.0,0,observed
28,1,1.0,0,1.961,15,0.0,0,observed
29,1,0.0,1,0.91,15,0.0,0,observed
30,1,1.0,0,0.85,16,0.0,0,observed
31,1,1.0,1,0.493,16,1.0,0,observed
32,1,0.0,0,0.502,17,1.0,0,observed
33,1,0.0,1,0.874,17,0.0,0,observed
34,1,1.0,0,0.989,18,1.0,0,observed
35,1,1.0,1,0.225,18,0.0,0,observed
36,1,0.0,0,0.346,19,1.0,0,observed
37,1,0.0,1,0.174,19,1.0,0,observed
38,1,0.0,0,1.592,20,1.0,0,observed
39,1,0.0,1,0.583,20,0.0,0,observed
40,1,1.0,0,0.522,21,0.0,0,observed
41,1,1.0,1,0.488,21,1.0,0,observed
42,1,0.0,0,0.848,22,1.0,0,observed
43,1,0.0,1,1.062,22,0.0,0,observed
44,1,0.0,0,0.286,23,0.0,0,observed
45,1,1.0,1,0.25,23,0.0,0,observed
46,1,0.0,0,0.402,24,1.0,0,observed
47,1,0.0,1,0.937,24,1.0,0,observed
48,1,0.0,0,1.257,25,1.0,0,observed
49,1,0.0,1,0.361,25,0.0,0,observed
50,1,0.0,0,1.929,26,1.0,0,observed
51,1,0.0,1,0.941,26,1.0,0,observed
52,1,0.0,0,1.341,27,1.0,0,observed
53,1,0.0,1,0.658,27,0.0,0,observed
54,1,0.0,0,2.246,28,0.0,0,observed
55,1,1.0,1,0.157,28,0.0,0,observed
56,1,0.0,0,0.296,29,1.0,0,observed
57,1,0.0,1,0.158,29,1.0,0,observed
58,1,1.0,0,0.503,30,0.0,0,observed
59,1,0.0,1,0.231,30,1.0,0,observed
60,1,1.0,0,0.458,31,0.0,0,observed
61,1,1.0,1,1.236,31,0.0,0,observed
62,1,1.0,0,2.388,32,0.0,0,observed
63,1,1.0,1,1.439,32,0.0,0,observed
64,1,0.0,0,0.598,33,0.0,0,observed
65,1,0.0,1,0.415,33,1.0,0,observed
66,1,0.0,0,0.286,34,1.0,0,observed
67,1,0.0,1,0.83,34,1.0,0,observed
68,1,0.0,0,0.239,35,1.0,0,observed
69,1,1.0,1,1.369,35,0.0,0,observed
70,1,0.0,0,0.472,36,1.0,0,observed
71,1,1.0,1,0.297,36,0.0,0,observed
72,1,0.0,0,0.398,37,0.0,0,observed
73,1,0.0,1,0.752,37,1.0,0,observed
74,1,0.0,0,0.251,38,1.0,0,observed
75,1,0.0,1,0.864,38,1.0,0,observed
76,1,1.0,0,0.211,39,1.0,0,observed
77,1,1.0,1,1.211,39,0.0,0,observed
78,1,0.0,0,0.613,40,1.0,0,observed
79,1,0.0,1,0.943,40,1.0,0,observed
80,1,0.0,0,0.328,41,1.0,0,observed
81,1,1.0,1,1.078,41,1.0,0,observed
82,1,1.0,0,0.211,42,1.0,0,observed
83,1,1.0,1,0.825,42,1.0,0,observed
84,1,1.0,0,0.175,43,1.0,0,observed
85,1,0.0,1,0.665,43,0.0,0,observed
86,1,1.0,0,0.203,44,1.0,0,observed
87,1,0.0,1,0.309,44,0.0,0,observed
88,1,0.0,0,0.223,45,0.0,0,observed
89,1,0.0,1,0.803,45,1.0,0,observed
90,1,0.0,0,0.262,46,1.0,0,observed
91,1,0.0,1,0.364,46,0.0,0,observed
92,1,0.0,0,0.187,47,0.0,0,observed
93,1,0.0,1,0.312,47,0.0,0,observed
94,1,0.0,0,0.559,48,0.0,0,observed
95,1,0.0,1,0.231,48,0.0,0,observed
96,1,0.0,0,0.329,49,0.0,0,observed
97,1,0.0,1,0.168,49,0.0,0,observed
98,1,0.0,0,0.252,50,1.0,0,observed
99,1,0.0,1,0.189,50,0.0,0,observed
100,1,1.0,0,0.222,51,0.0,0,observed
101,1,0.0,1,0.169,51,1.0,0,observed
102,1,1.0,0,0.227,52,1.0,0,observed
103,1,1.0,1,0.291,52,0.0,0,observed
104,1,1.0,0,0.434,53,1.0,0,observed
105,1,1.0,1,0.21,53,0.0,0,observed
106,1,1.0,0,0.232,54,1.0,0,observed
107,1,0.0,1,0.245,54,0.0,0,observed
108,1,0.0,0,0.367,55,0.0,0,observed
109,1,1.0,1,0.271,55,1.0,0,observed
110,1,1.0,0,0.17,56,1.0,0,observed
111,1,1.0,1,0.367,56,1.0,0,observed
112,1,0.0,0,0.884,57,0.0,0,observed
113,1,1.0,1,0.328,57,1.0,0,observed
114,1,0.0,0,0.353,58,1.0,0,observed
115,1,0.0,1,0.541,58,1.0,0,observed
116,1,1.0,0,0.206,59,0.0,0,observed
117,1,0.0,1,1.6,59,0.0,0,observed
118,1,0.0,0,0.201,60,1.0,0,observed
119,1,0.0,1,0.384,60,0.0,0,observed
120,1,1.0,0,1.095,61,0.0,0,observed
121,1,1.0,1,0.22,61,0.0,0,observed
122,1,1.0,0,0.18,62,0.0,0,observed
123,1,1.0,1,0.195,62,0.0,0,observed
124,1,0.0,0,0.429,63,0.0,0,observed
125,1,0.0,1,0.173,63,1.0,0,observed
126,1,0.0,0,0.444,64,0.0,0,observed
127,1,0.0,1,0.722,64,1.0,0,observed
128,1,0.0,0,0.227,65,1.0,0,observed
129,1,0.0,1,0.425,65,1.0,0,observed
130,1,0.0,0,0.203,66,0.0,0,observed
131,1,1.0,1,0.631,66,1.0,0,observed
132,1,0.0,0,0.193,67,0.0,0,observed
133,1,1.0,1,0.406,67,1.0,0,observed
134,1,0.0,0,0.177,68,0.0,0,observed
135,1,0.0,1,0.79,68,0.0,0,observed
136,1,0.0,0,0.253,69,1.0,0,observed
137,1,1.0,1,0.545,69,1.0,0,observed
138,1,0.0,0,0.417,70,1.0,0,observed
139,1,1.0,1,0.531,70,1.0,0,observed
140,1,1.0,0,0.96,71,1.0,0,observed
141,1,0.0,1,1.123,71,0.0,0,observed
142,1,0.0,0,0.725,72,0.0,0,observed
143,1,1.0,1,0.728,72,0.0,0,observed
144,1,0.0,0,0.209,73,0.0,0,observed
145,1,0.0,1,0.421,73,1.0,0,observed
146,1,1.0,0,1.126,74,1.0,0,observed
147,1,0.0,1,0.159,74,0.0,0,observed
148,1,0.0,0,0.705,75,0.0,0,observed
149,1,0.0,1,0.207,75,0.0,0,observed
150,1,1.0,0,0.344,76,1.0,0,observed
151,1,1.0,1,0.379,76,1.0,0,observed
152,1,0.0,0,0.405,77,0.0,0,observed
153,1,0.0,1,0.357,77,0.0,0,observed
154,1,0.0,0,0.953,78,0.0,0,observed
155,1,1.0,1,0.165,78,1.0,0,observed
156,1,1.0,0,0.418,79,1.0,0,observed
157,1,0.0,1,0.682,79,0.0,0,observed
158,1,0.0,0,1.147,80,0.0,0,observed
159,1,1.0,1,0.325,80,1.0,0,observed
160,1,0.0,0,0.263,81,0.0,0,observed
161,1,0.0,1,0.49,81,1.0,0,observed
162,1,1.0,0,0.17,82,1.0,0,observed
163,1,0.0,1,0.887,82,1.0,0,observed
164,1,1.0,0,0.173,83,1.0,0,observed
165,1,0.0,1,0.304,83,1.0,0,observed
166,1,0.0,0,0.15,84,1.0,0,observed
167,1,0.0,1,0.162,84,1.0,0,observed
168,1,0.0,0,0.157,85,1.0,0,observed
169,1,1.0,1,0.308,85,1.0,0,observed
170,1,0.0,0,0.197,86,0.0,0,observed
171,1,0.0,1,0.184,86,0.0,0,observed
172,1,1.0,0,0.274,87,0.0,0,observed
173,1,1.0,1,0.351,87,1.0,0,observed
174,1,0.0,0,0.171,88,0.0,0,observed
175,1,0.0,1,1.018,88,1.0,0,observed
176,1,1.0,0,0.184,89,0.0,0,observed
177,1,1.0,1,0.196,89,1.0,0,observed
178,1,0.0,0,0.192,90,1.0,0,observed
179,1,0.0,1,0.167,90,0.0,0,observed
180,1,0.0,0,0.719,91,0.0,0,observed
181,1,0.0,1,0.265,91,0.0,0,observed
182,1,0.0,0,0.254,92,1.0,0,observed
183,1,1.0,1,0.18,92,1.0,0,observed
184,1,0.0,0,0.243,93,0.0,0,observed
185,1,1.0,1,0.221,93,1.0,0,observed
186,1,0.0,0,0.414,94,1.0,0,observed
187,1,0.0,1,0.21,94,1.0,0,observed
188,1,0.0,0,0.514,95,1.0,0,observed
189,1,1.0,1,0.196,95,0.0,0,observed
190,1,1.0,0,0.953,96,0.0,0,observed
191,1,0.0,1,0.165,96,0.0,0,observed
192,1,1.0,0,0.175,97,1.0,0,observed
193,1,0.0,1,0.296,97,1.0,0,observed
194,1,0.0,0,0.506,98,1.0,0,observed
195,1,0.0,1,0.306,98,1.0,0,observed
196,1,1.0,0,0.233,99,0.0,0,observed
197,1,1.0,1,0.452,99,0.0,0,observed
198,1,0.0,0,0.612,100,1.0,0,observed
199,1,0.0,1,0.259,100,1.0,0,observed
200,1,1.0,0,0.358,101,0.0,0,observed
201,1,0.0,1,0.271,101,1.0,0,observed
202,1,1.0,0,0.27,102,1.0,0,observed
203,1,0.0,1,0.644,102,1.0,0,observed
204,1,0.0,0,0.516,103,1.0,0,observed
205,1,0.0,1,0.322,103,1.0,0,observed
206,1,1.0,0,0.585,104,1.0,0,observed
207,1,1.0,1,0.257,104,0.0,0,observed
208,1,0.0,0,0.562,105,1.0,0,observed
209,1,1.0,1,0.196,105,0.0,0,observed
210,1,1.0,0,0.679,106,1.0,0,observed
211,1,1.0,1,0.204,106,1.0,0,observed
212,1,1.0,0,0.196,107,0.0,0,observed
213,1,0.0,1,0.22,107,1.0,0,observed
214,1,1.0,0,0.465,108,0.0,0,observed
215,1,1.0,1,0.185,108,0.0,0,observed
216,1,1.0,0,0.176,109,1.0,0,observed
217,1,0.0,1,0.159,109,1.0,0,observed
218,1,0.0,0,0.881,110,1.0,0,observed
219,1,1.0,1,0.794,110,0.0,0,observed
220,1,1.0,0,0.963,111,0.0,0,observed
221,1,1.0,1,0.814,111,1.0,0,observed
222,1,0.0,0,0.969,112,1.0,0,observed
223,1,0.0,1,0.164,112,1.0,0,observed
224,1,1.0,0,1.225,113,0.0,0,observed
225,1,0.0,1,0.169,113,1.0,0,observed
226,1,1.0,0,0.858,114,0.0,0,observed
227,1,0.0,1,0.17,114,1.0,0,observed
228,1,0.0,0,0.277,115,1.0,0,observed
229,1,1.0,1,0.174,115,0.0,0,observed
230,1,1.0,0,0.176,116,0.0,0,observed
231,1,0.0,1,0.307,116,1.0,0,observed
232,1,0.0,0,0.243,117,1.0,0,observed
233,1,0.0,1,0.358,117,1.0,0,observed
234,1,1.0,0,0.534,118,0.0,0,observed
235,1,1.0,1,0.94,118,0.0,0,observed
236,1,1.0,0,0.273,119,0.0,0,observed
237,1,1.0,1,0.15,119,0.0,0,observed
238,1,1.0,0,0.899,120,0.0,0,observed
239,1,0.0,1,0.187,120,1.0,0,observed
240,1,1.0,0,0.243,121,1.0,0,observed
241,1,1.0,1,0.333,121,1.0,0,observed
242,1,1.0,0,0.244,122,1.0,0,observed
243,1,1.0,1,0.33,122,1.0,0,observed
244,1,1.0,0,0.429,123,0.0,0,observed
245,1,0.0,1,0.604,123,0.0,0,observed
246,1,1.0,0,0.527,124,1.0,0,observed
247,1,1.0,1,0.767,124,1.0,0,observed
248,1,0.0,0,0.346,125,0.0,0,observed
249,1,1.0,1,0.178,125,0.0,0,observed
250,1,1.0,0,0.204,126,1.0,0,observed
251,1,0.0,1,0.238,126,0.0,0,observed
252,1,1.0,0,0.395,127,0.0,0,observed
253,1,1.0,1,0.213,127,0.0,0,observed
254,1,1.0,0,0.173,128,0.0,0,observed
255,1,1.0,1,0.246,128,1.0,0,observed
256,1,0.0,0,0.204,129,0.0,0,observed
257,1,1.0,1,0.379,129,1.0,0,observed
258,1,1.0,0,0.187,130,1.0,0,observed
259,1,1.0,1,0.335,130,1.0,0,observed
260,1,1.0,0,0.386,131,1.0,0,observed
261,1,0.0,1,0.363,131,1.0,0,observed
262,1,1.0,0,0.195,132,1.0,0,observed
263,1,1.0,1,0.317,132,0.0,0,observed
264,1,1.0,0,0.193,133,0.0,0,observed
265,1,0.0,1,0.442,133,1.0,0,observed
266,1,1.0,0,2.126,134,0.0,0,observed
267,1,1.0,1,0.213,134,1.0,0,observed
268,1,0.0,0,0.23,135,0.0,0,observed
269,1,1.0,1,0.206,135,0.0,0,observed
270,1,0.0,0,0.762,136,1.0,0,observed
271,1,1.0,1,0.22,136,1.0,0,observed
272,1,1.0,0,0.775,137,0.0,0,observed
273,1,1.0,1,0.323,137,0.0,0,observed
274,1,1.0,0,0.611,138,1.0,0,observed
275,1,0.0,1,0.185,138,0.0,0,observed
276,1,1.0,0,0.957,139,1.0,0,observed
277,1,0.0,1,0.266,139,0.0,0,observed
278,1,1.0,0,0.201,140,1.0,0,observed
279,1,0.0,1,0.172,140,0.0,0,observed
280,1,1.0,0,0.274,141,1.0,0,observed
281,1,0.0,1,0.381,141,0.0,0,observed
282,1,0.0,0,0.254,142,0.0,0,observed
283,1,1.0,1,0.319,142,1.0,0,observed
284,1,0.0,0,0.955,143,1.0,0,observed
285,1,1.0,1,0.441,143,1.0,0,observed
286,1,1.0,0,0.779,144,0.0,0,observed
287,1,0.0,1,0.243,144,1.0,0,observed
288,1,1.0,0,0.172,145,0.0,0,observed
289,1,1.0,1,0.196,145,0.0,0,observed
290,1,1.0,0,0.279,146,0.0,0,observed
291,1,0.0,1,0.178,146,1.0,0,observed
292,1,1.0,0,0.165,147,1.0,0,observed
293,1,1.0,1,0.163,147,0.0,0,observed
294,1,1.0,0,0.222,148,1.0,0,observed
295,1,1.0,1,0.851,148,1.0,0,observed
296,1,0.0,0,0.63,149,0.0,0,observed
297,1,0.0,1,0.198,149,0.0,0,observed
298,1,1.0,0,0.2,150,1.0,0,observed
299,1,0.0,1,0.212,150,0.0,0,observed
300,1,0.0,0,0.162,151,0.0,0,observed
301,1,1.0,1,1.719,151,1.0,0,observed
302,1,1.0,0,0.884,152,0.0,0,observed
303,1,0.0,1,0.405,152,0.0,0,observed
304,1,0.0,0,0.265,153,0.0,0,observed
305,1,1.0,1,0.216,153,1.0,0,observed
306,1,0.0,0,0.282,154,0.0,0,observed
307,1,1.0,1,0.261,154,1.0,0,observed
308,1,1.0,0,0.384,155,0.0,0,observed
309,1,1.0,1,0.335,155,1.0,0,observed
310,1,1.0,0,0.231,156,1.0,0,observed
311,1,1.0,1,0.452,156,1.0,0,observed
312,1,1.0,0,0.311,157,0.0,0,observed
313,1,0.0,1,0.243,157,1.0,0,observed
314,1,0.0,0,0.155,158,1.0,0,observed
315,1,0.0,1,0.804,158,0.0,0,observed
316,1,0.0,0,0.214,159,1.0,0,observed
317,1,0.0,1,0.21,159,0.0,0,observed
318,1,0.0,0,0.212,160,0.0,0,observed
319,1,0.0,1,0.175,160,0.0,0,observed
320,2,0.0,0,0.952,1,0.0,0,observed
321,2,0.0,1,0.659,1,0.0,0,observed
322,2,1.0,0,1.405,2,1.0,0,observed
323,2,0.0,1,0.223,2,1.0,0,observed
324,2,1.0,0,1.169,3,0.0,0,observed
325,2,0.0,1,0.286,3,1.0,0,observed
326,2,1.0,0,1.63,4,0.0,0,observed
327,2,1.0,1,0.263,4,0.0,0,observed
328,2,0.0,0,1.355,5,1.0,0,observed
329,2,0.0,1,0.202,5,0.0,0,observed
330,2,1.0,0,2.355,6,0.0,0,observed
331,2,0.0,1,0.317,6,0.0,0,observed
332,2,0.0,0,0.507,7,1.0,0,observed
333,2,0.0,1,0.269,7,1.0,0,observed
334,2,0.0,0,1.232,8,1.0,0,observed
335,2,0.0,1,0.269,8,1.0,0,observed
336,2,0.0,0,0.892,9,0.0,0,observed
337,2,0.0,1,0.516,9,1.0,0,observed
338,2,0.0,0,0.952,10,1.0,0,observed
339,2,0.0,1,0.294,10,0.0,0,observed
340,2,0.0,0,0.885,11,0.0,0,observed
341,2,1.0,1,0.349,11,0.0,0,observed
342,2,0.0,0,1.38,12,0.0,0,observed
343,2,1.0,1,0.245,12,1.0,0,observed
344,2,0.0,0,0.253,13,1.0,0,observed
345,2,1.0,1,0.35,13,1.0,0,observed
346,2,1.0,0,0.645,14,0.0,0,observed
347,2,0.0,1,0.969,14,0.0,0,observed
348,2,1.0,0,0.599,15,0.0,0,observed
349,2,1.0,1,0.861,15,0.0,0,observed
350,2,0.0,0,0.307,16,1.0,0,observed
351,2,1.0,1,0.59,16,0.0,0,observed
352,2,0.0,0,0.746,17,1.0,0,observed
353,2,1.0,1,0.173,17,1.0,0,observed
354,2,1.0,0,0.437,18,1.0,0,observed
355,2,0.0,1,0.217,18,1.0,0,observed
356,2,1.0,0,0.266,19,1.0,0,observed
357,2,1.0,1,0.351,19,0.0,0,observed
358,2,0.0,0,0.587,20,0.0,0,observed
359,2,0.0,1,0.298,20,1.0,0,observed
360,2,0.0,0,0.265,21,1.0,0,observed
361,2,1.0,1,0.192,21,1.0,0,observed
362,2,0.0,0,0.31,22,1.0,0,observed
363,2,0.0,1,0.344,22,0.0,0,observed
364,2,1.0,0,0.304,23,0.0,0,observed
365,2,0.0,1,0.256,23,1.0,0,observed
366,2,0.0,0,0.23,24,0.0,0,observed
367,2,0.0,1,0.285,24,0.0,0,observed
368,2,1.0,0,0.216,25,0.0,0,observed
369,2,1.0,1,0.157,25,1.0,0,observed
370,2,1.0,0,0.239,26,0.0,0,observed
371,2,0.0,1,0.188,26,1.0,0,observed
372,2,1.0,0,0.207,27,0.0,0,observed
373,2,1.0,1,1.091,27,0.0,0,observed
374,2,0.0,0,0.165,28,1.0,0,observed
375,2,0.0,1,0.291,28,1.0,0,observed
376,2,0.0,0,0.174,29,1.0,0,observed
377,2,1.0,1,0.232,29,0.0,0,observed
378,2,1.0,0,0.241,30,0.0,0,observed
379,2,0.0,1,0.158,30,1.0,0,observed
380,2,1.0,0,0.19,31,0.0,0,observed
381,2,0.0,1,0.465,31,1.0,0,observed
382,2,1.0,0,0.421,32,1.0,0,observed
383,2,0.0,1,0.169,32,1.0,0,observed
384,2,1.0,0,0.216,33,1.0,0,observed
385,2,1.0,1,0.15,33,0.0,0,observed
386,2,1.0,0,0.21,34,0.0,0,observed
387,2,1.0,1,1.114,34,0.0,0,observed
388,2,1.0,0,0.151,35,1.0,0,observed
389,2,1.0,1,0.221,35,0.0,0,observed
390,2,1.0,0,0.156,36,0.0,0,observed
391,2,0.0,1,0.242,36,1.0,0,observed
392,2,0.0,0,0.401,37,1.0,0,observed
393,2,1.0,1,0.171,37,0.0,0,observed
394,2,0.0,0,0.535,38,1.0,0,observed
395,2,0.0,1,0.182,38,1.0,0,observed
396,2,1.0,0,1.6,39,0.0,0,observed
397,2,0.0,1,0.251,39,1.0,0,observed
398,2,0.0,0,0.956,40,0.0,0,observed
399,2,0.0,1,0.256,40,1.0,0,observed
400,2,0.0,0,0.429,41,0.0,0,observed
401,2,0.0,1,0.296,41,1.0,0,observed
402,2,0.0,0,0.499,42,1.0,0,observed
403,2,1.0,1,0.253,42,1.0,0,observed
404,2,0.0,0,0.452,43,1.0,0,observed
405,2,0.0,1,0.231,43,1.0,0,observed
406,2,0.0,0,0.348,44,1.0,0,observed
407,2,0.0,1,0.285,44,0.0,0,observed
408,2,0.0,0,0.286,45,1.0,0,observed
409,2,0.0,1,0.197,45,0.0,0,observed
410,2,0.0,0,0.528,46,0.0,0,observed
411,2,1.0,1,0.162,46,0.0,0,observed
412,2,0.0,0,0.513,47,0.0,0,observed
413,2,0.0,1,0.311,47,0.0,0,observed
414,2,0.0,0,0.291,48,1.0,0,observed
415,2,0.0,1,0.254,48,0.0,0,observed
416,2,1.0,0,0.151,49,0.0,0,observed
417,2,0.0,1,0.479,49,1.0,0,observed
418,2,0.0,0,0.21,50,0.0,0,observed
419,2,1.0,1,0.269,50,1.0,0,observed
420,2,0.0,0,0.181,51,1.0,0,observed
421,2,1.0,1,0.194,51,0.0,0,observed
422,2,0.0,0,0.159,52,0.0,0,observed
423,2,1.0,1,0.429,52,1.0,0,observed
424,2,0.0,0,0.228,53,1.0,0,observed
425,2,1.0,1,0.381,53,1.0,0,observed
426,2,0.0,0,0.525,54,0.0,0,observed
427,2,1.0,1,0.297,54,0.0,0,observed
428,2,0.0,0,0.394,55,0.0,0,observed
429,2,1.0,1,0.349,55,0.0,0,observed
430,2,0.0,0,0.44,56,1.0,0,observed
431,2,1.0,1,0.343,56,1.0,0,observed
432,2,0.0,0,0.642,57,0.0,0,observed
433,2,1.0,1,0.506,57,1.0,0,observed
434,2,0.0,0,0.182,58,1.0,0,observed
435,2,0.0,1,0.205,58,0.0,0,observed
436,2,0.0,0,0.401,59,0.0,0,observed
437,2,1.0,1,0.283,59,1.0,0,observed
438,2,0.0,0,0.242,60,0.0,0,observed
439,2,1.0,1,0.461,60,1.0,0,observed
440,2,0.0,0,0.202,61,0.0,0,observed
441,2,0.0,1,0.524,61,0.0,0,observed
442,2,1.0,0,0.18,62,1.0,0,observed
443,2,1.0,1,0.699,62,0.0,0,observed
444,2,0.0,0,0.166,63,0.0,0,observed
445,2,0.0,1,0.383,63,1.0,0,observed
446,2,0.0,0,0.312,64,0.0,0,observed
447,2,0.0,1,0.361,64,0.0,0,observed
448,2,0.0,0,0.172,65,0.0,0,observed
449,2,0.0,1,0.903,65,1.0,0,observed
450,2,1.0,0,0.175,66,1.0,0,observed
451,2,1.0,1,0.43,66,1.0,0,observed
452,2,1.0,0,0.186,67,1.0,0,observed
453,2,0.0,1,0.498,67,0.0,0,observed
454,2,1.0,0,0.215,68,1.0,0,observed
455,2,1.0,1,0.764,68,1.0,0,observed
456,2,1.0,0,0.251,69,1.0,0,observed
457,2,0.0,1,0.9,69,1.0,0,observed
458,2,0.0,0,0.247,70,0.0,0,observed
459,2,1.0,1,0.405,70,0.0,0,observed
460,2,1.0,0,0.211,71,1.0,0,observed
461,2,0.0,1,0.542,71,0.0,0,observed
462,2,1.0,0,0.184,72,1.0,0,observed
463,2,1.0,1,0.309,72,1.0,0,observed
464,2,1.0,0,0.2,73,1.0,0,observed
465,2,0.0,1,0.311,73,0.0,0,observed
466,2,1.0,0,0.336,74,1.0,0,observed
467,2,1.0,1,0.323,74,1.0,0,observed
468,2,1.0,0,0.24,75,1.0,0,observed
469,2,0.0,1,0.942,75,0.0,0,observed
470,2,1.0,0,0.231,76,1.0,0,observed
471,2,1.0,1,0.255,76,1.0,0,observed
472,2,1.0,0,0.283,77,1.0,0,observed
473,2,0.0,1,0.402,77,0.0,0,observed
474,2,0.0,0,0.301,78,0.0,0,observed
475,2,1.0,1,0.221,78,0.0,0,observed
476,2,0.0,0,0.208,79,0.0,0,observed
477,2,0.0,1,0.476,79,1.0,0,observed
478,2,0.0,0,0.158,80,0.0,0,observed
479,2,1.0,1,1.38,80,1.0,0,observed
480,2,1.0,0,0.424,81,0.0,0,observed
481,2,0.0,1,0.375,81,1.0,0,observed
482,2,1.0,0,0.252,82,1.0,0,observed
483,2,1.0,1,0.506,82,1.0,0,observed
484,2,1.0,0,0.27,83,0.0,0,observed
485,2,0.0,1,0.344,83,0.0,0,observed
486,2,0.0,0,0.186,84,0.0,0,observed
487,2,1.0,1,0.577,84,1.0,0,observed
488,2,1.0,0,0.382,85,0.0,0,observed
489,2,0.0,1,0.472,85,0.0,0,observed
490,2,0.0,0,0.278,86,1.0,0,observed
491,2,1.0,1,0.318,86,1.0,0,observed
492,2,0.0,0,0.876,87,1.0,0,observed
493,2,0.0,1,0.284,87,1.0,0,observed
494,2,0.0,0,0.424,88,1.0,0,observed
495,2,1.0,1,0.448,88,0.0,0,observed
496,2,0.0,0,0.557,89,0.0,0,observed
497,2,0.0,1,0.753,89,1.0,0,observed
498,2,0.0,0,0.233,90,1.0,0,observed
499,2,1.0,1,0.821,90,0.0,0,observed
500,2,1.0,0,0.357,91,0.0,0,observed
501,2,0.0,1,0.464,91,1.0,0,observed
502,2,1.0,0,0.201,92,1.0,0,observed
503,2,1.0,1,0.348,92,1.0,0,observed
504,2,0.0,0,0.205,93,1.0,0,observed
505,2,0.0,1,1.058,93,1.0,0,observed
506,2,1.0,0,0.222,94,1.0,0,observed
507,2,1.0,1,0.509,94,0.0,0,observed
508,2,0.0,0,0.239,95,1.0,0,observed
509,2,0.0,1,0.369,95,1.0,0,observed
510,2,0.0,0,1.271,96,1.0,0,observed
511,2,1.0,1,0.315,96,0.0,0,observed
512,2,0.0,0,0.292,97,1.0,0,observed
513,2,0.0,1,0.411,97,1.0,0,observed
514,2,0.0,0,0.171,98,0.0,0,observed
515,2,1.0,1,0.319,98,1.0,0,observed
516,2,0.0,0,0.288,99,0.0,0,observed
517,2,0.0,1,0.66,99,0.0,0,observed
518,2,1.0,0,0.276,100,0.0,0,observed
519,2,1.0,1,0.653,100,0.0,0,observed
520,2,1.0,0,0.214,101,0.0,0,observed
521,2,0.0,1,0.604,101,1.0,0,observed
522,2,1.0,0,0.258,102,0.0,0,observed
523,2,1.0,1,0.352,102,0.0,0,observed
524,2,0.0,0,0.163,103,1.0,0,observed
525,2,0.0,1,0.316,103,1.0,0,observed
526,2,0.0,0,0.185,104,1.0,0,observed
527,2,1.0,1,0.45,104,1.0,0,observed
528,2,1.0,0,0.181,105,1.0,0,observed
529,2,1.0,1,1.223,105,0.0,0,observed
530,2,1.0,0,0.589,106,1.0,0,observed
531,2,0.0,1,0.27,106,1.0,0,observed
532,2,1.0,0,0.201,107,0.0,0,observed
533,2,1.0,1,0.362,107,0.0,0,observed
534,2,1.0,0,0.306,108,0.0,0,observed
535,2,0.0,1,0.328,108,1.0,0,observed
536,2,1.0,0,0.181,109,0.0,0,observed
537,2,1.0,1,0.311,109,0.0,0,observed
538,2,0.0,0,0.642,110,1.0,0,observed
539,2,0.0,1,0.332,110,1.0,0,observed
540,2,0.0,0,0.899,111,1.0,0,observed
541,2,0.0,1,1.903,111,1.0,0,observed
542,2,0.0,0,0.233,112,1.0,0,observed
543,2,1.0,1,0.281,112,0.0,0,observed
544,2,0.0,0,0.42,113,1.0,0,observed
545,2,0.0,1,0.247,113,1.0,0,observed
546,2,0.0,0,0.153,114,0.0,0,observed
547,2,1.0,1,0.577,114,1.0,0,observed
548,2,0.0,0,0.236,115,1.0,0,observed
549,2,0.0,1,0.332,115,1.0,0,observed
550,2,1.0,0,0.204,116,0.0,0,observed
551,2,1.0,1,0.372,116,1.0,0,observed
552,2,0.0,0,0.301,117,1.0,0,observed
553,2,0.0,1,0.291,117,1.0,0,observed
554,2,1.0,0,0.295,118,1.0,0,observed
555,2,1.0,1,0.315,118,1.0,0,observed
556,2,1.0,0,0.461,119,1.0,0,observed
557,2,1.0,1,0.327,119,0.0,0,observed
558,2,0.0,0,0.208,120,1.0,0,observed
559,2,0.0,1,1.237,120,1.0,0,observed
560,2,0.0,0,0.236,121,0.0,0,observed
561,2,1.0,1,0.319,121,1.0,0,observed
562,2,0.0,0,0.246,122,1.0,0,observed
563,2,0.0,1,1.035,122,0.0,0,observed
564,2,1.0,0,0.279,123,0.0,0,observed
565,2,1.0,1,0.544,123,1.0,0,observed
566,2,0.0,0,0.204,124,1.0,0,observed
567,2,0.0,1,0.33,124,0.0,0,observed
568,2,1.0,0,0.325,125,1.0,0,observed
569,2,1.0,1,0.352,125,1.0,0,observed
570,2,1.0,0,0.419,126,1.0,0,observed
571,2,0.0,1,0.329,126,0.0,0,observed
572,2,1.0,0,0.268,127,1.0,0,observed
573,2,1.0,1,0.342,127,0.0,0,observed
574,2,0.0,0,0.195,128,0.0,0,observed
575,2,0.0,1,0.273,128,0.0,0,observed
576,2,0.0,0,0.229,129,1.0,0,observed
577,2,1.0,1,0.321,129,0.0,0,observed
578,2,0.0,0,0.177,130,1.0,0,observed
579,2,0.0,1,0.557,130,1.0,0,observed
580,2,0.0,0,0.347,131,0.0,0,observed
581,2,1.0,1,0.333,131,0.0,0,observed
582,2,0.0,0,0.248,132,1.0,0,observed
583,2,0.0,1,0.577,132,0.0,0,observed
584,2,0.0,0,0.153,133,0.0,0,observed
585,2,1.0,1,0.535,133,1.0,0,observed
586,2,1.0,0,0.406,134,1.0,0,observed
587,2,0.0,1,0.477,134,0.0,0,observed
588,2,0.0,0,0.215,135,0.0,0,observed
589,2,1.0,1,0.357,135,1.0,0,observed
590,2,0.0,0,0.235,136,1.0,0,observed
591,2,0.0,1,0.431,136,0.0,0,observed
592,2,0.0,0,0.194,137,0.0,0,observed
593,2,1.0,1,0.327,137,0.0,0,observed
594,2,1.0,0,0.241,138,0.0,0,observed
595,2,0.0,1,1.02,138,0.0,0,observed
596,2,1.0,0,0.262,139,1.0,0,observed
597,2,0.0,1,0.369,139,0.0,0,observed
598,2,0.0,0,0.357,140,0.0,0,observed
599,2,1.0,1,0.187,140,1.0,0,observed
600,2,0.0,0,0.293,141,0.0,0,observed
601,2,0.0,1,0.31,141,0.0,0,observed
602,2,0.0,0,0.33,142,1.0,0,observed
603,2,1.0,1,0.287,142,0.0,0,observed
604,2,0.0,0,0.207,143,0.0,0,observed
605,2,0.0,1,0.261,143,1.0,0,observed
606,2,1.0,0,0.315,144,1.0,0,observed
607,2,1.0,1,0.307,144,0.0,0,observed
608,2,0.0,0,0.222,145,0.0,0,observed
609,2,0.0,1,0.84,145,1.0,0,observed
610,2,0.0,0,0.246,146,0.0,0,observed
611,2,0.0,1,0.323,146,1.0,0,observed
612,2,0.0,0,0.17,147,0.0,0,observed
613,2,0.0,1,0.869,147,0.0,0,observed
614,2,1.0,0,0.242,148,1.0,0,observed
615,2,1.0,1,0.515,148,0.0,0,observed
616,2,0.0,0,0.28,149,1.0,0,observed
617,2,0.0,1,0.42,149,0.0,0,observed
618,2,1.0,0,0.53,150,1.0,0,observed
619,2,0.0,1,1.028,150,0.0,0,observed
620,2,0.0,0,0.37,151,0.0,0,observed
621,2,1.0,1,0.554,151,0.0,0,observed
622,2,1.0,0,0.311,152,1.0,0,observed
623,2,1.0,1,0.285,152,1.0,0,observed
624,2,1.0,0,0.42,153,1.0,0,observed
625,2,0.0,1,0.393,153,0.0,0,observed
626,2,0.0,0,0.241,154,0.0,0,observed
627,2,1.0,1,0.419,154,1.0,0,observed
628,2,0.0,0,0.423,155,0.0,0,observed
629,2,0.0,1,0.395,155,0.0,0,observed
630,2,1.0,0,0.199,156,1.0,0,observed
631,2,1.0,1,0.277,156,1.0,0,observed
632,2,0.0,0,0.351,157,0.0,0,observed
633,2,0.0,1,0.281,157,0.0,0,observed
634,2,1.0,0,0.287,158,0.0,0,observed
635,2,1.0,1,0.389,158,1.0,0,observed
636,2,0.0,0,0.186,159,1.0,0,observed
637,2,0.0,1,0.406,159,0.0,0,observed
638,2,1.0,0,0.224,160,1.0,0,observed
639,2,1.0,1,0.419,160,1.0,0,observed
640,3,0.0,0,1.94,1,0.0,0,observed
641,3,1.0,1,0.456,1,1.0,0,observed
642,3,1.0,0,0.64,2,1.0,0,observed
643,3,0.0,1,0.671,2,0.0,0,observed
644,3,1.0,0,0.967,3,0.0,0,observed
645,3,0.0,1,0.343,3,1.0,0,observed
646,3,1.0,0,0.646,4,0.0,0,observed
647,3,0.0,1,0.266,4,0.0,0,observed
648,3,1.0,0,0.701,5,1.0,0,observed
649,3,0.0,1,1.026,5,1.0,0,observed
650,3,1.0,0,0.587,6,0.0,0,observed
651,3,1.0,1,0.326,6,1.0,0,observed
652,3,1.0,0,1.346,7,1.0,0,observed
653,3,0.0,1,0.884,7,1.0,0,observed
654,3,0.0,0,1.161,8,1.0,0,observed
655,3,1.0,1,0.326,8,0.0,0,observed
656,3,0.0,0,0.726,9,0.0,0,observed
657,3,1.0,1,1.436,9,0.0,0,observed
658,3,1.0,0,0.38,10,0.0,0,observed
659,3,1.0,1,0.282,10,0.0,0,observed
660,3,1.0,0,0.408,11,0.0,0,observed
661,3,0.0,1,0.343,11,1.0,0,observed
662,3,0.0,0,0.272,12,0.0,0,observed
663,3,0.0,1,0.366,12,0.0,0,observed
664,3,1.0,0,0.554,13,0.0,0,observed
665,3,1.0,1,0.448,13,1.0,0,observed
666,3,0.0,0,0.417,14,1.0,0,observed
667,3,0.0,1,0.614,14,0.0,0,observed
668,3,1.0,0,1.199,15,0.0,0,observed
669,3,0.0,1,0.593,15,0.0,0,observed
670,3,0.0,0,0.85,16,1.0,0,observed
671,3,0.0,1,0.473,16,0.0,0,observed
672,3,0.0,0,0.501,17,1.0,0,observed
673,3,1.0,1,0.398,17,1.0,0,observed
674,3,0.0,0,0.473,18,1.0,0,observed
675,3,1.0,1,0.3,18,1.0,0,observed
676,3,0.0,0,0.387,19,1.0,0,observed
677,3,1.0,1,0.505,19,1.0,0,observed
678,3,0.0,0,0.397,20,0.0,0,observed
679,3,1.0,1,0.318,20,0.0,0,observed
680,3,0.0,0,1.451,21,0.0,0,observed
681,3,0.0,1,0.486,21,0.0,0,observed
682,3,1.0,0,0.342,22,0.0,0,observed
683,3,0.0,1,0.421,22,1.0,0,observed
684,3,0.0,0,0.392,23,0.0,0,observed
685,3,1.0,1,0.4,23,0.0,0,observed
686,3,1.0,0,1.546,24,1.0,0,observed
687,3,0.0,1,0.326,24,1.0,0,observed
688,3,1.0,0,0.543,25,0.0,0,observed
689,3,0.0,1,0.36,25,1.0,0,observed
690,3,0.0,0,0.306,26,1.0,0,observed
691,3,0.0,1,0.388,26,1.0,0,observed
692,3,1.0,0,0.892,27,1.0,0,observed
693,3,1.0,1,0.365,27,0.0,0,observed
694,3,1.0,0,0.408,28,0.0,0,observed
695,3,0.0,1,0.388,28,1.0,0,observed
696,3,0.0,0,0.473,29,0.0,0,observed
697,3,0.0,1,0.305,29,1.0,0,observed
698,3,1.0,0,0.39,30,0.0,0,observed
699,3,0.0,1,0.418,30,1.0,0,observed
700,3,0.0,0,0.886,31,1.0,0,observed
701,3,1.0,1,0.687,31,0.0,0,observed
702,3,1.0,0,0.929,32,0.0,0,observed
703,3,1.0,1,0.462,32,0.0,0,observed
704,3,0.0,0,0.179,33,0.0,0,observed
705,3,0.0,1,0.349,33,1.0,0,observed
706,3,0.0,0,0.369,34,1.0,0,observed
707,3,0.0,1,0.254,34,1.0,0,observed
708,3,1.0,0,0.286,35,0.0,0,observed
709,3,0.0,1,0.305,35,1.0,0,observed
710,3,0.0,0,0.377,36,1.0,0,observed
711,3,0.0,1,0.407,36,1.0,0,observed
712,3,0.0,0,0.319,37,1.0,0,observed
713,3,0.0,1,0.361,37,1.0,0,observed
714,3,0.0,0,0.426,38,1.0,0,observed
715,3,0.0,1,0.348,38,1.0,0,observed
716,3,0.0,0,0.45,39,1.0,0,observed
717,3,0.0,1,0.811,39,1.0,0,observed
718,3,0.0,0,0.291,40,1.0,0,observed
719,3,0.0,1,0.335,40,1.0,0,observed
720,3,0.0,0,0.376,41,1.0,0,observed
721,3,0.0,1,0.395,41,0.0,0,observed
722,3,0.0,0,0.366,42,1.0,0,observed
723,3,1.0,1,0.32,42,1.0,0,observed
724,3,0.0,0,0.303,43,1.0,0,observed
725,3,1.0,1,0.486,43,1.0,0,observed
726,3,0.0,0,0.348,44,0.0,0,observed
727,3,1.0,1,0.458,44,1.0,0,observed
728,3,1.0,0,0.451,45,1.0,0,observed
729,3,1.0,1,0.446,45,0.0,0,observed
730,3,1.0,0,0.326,46,0.0,0,observed
731,3,0.0,1,0.454,46,1.0,0,observed
732,3,1.0,0,0.348,47,1.0,0,observed
733,3,0.0,1,0.328,47,0.0,0,observed
734,3,1.0,0,1.045,48,1.0,0,observed
735,3,1.0,1,0.731,48,1.0,0,observed
736,3,0.0,0,0.914,49,0.0,0,observed
737,3,1.0,1,0.357,49,0.0,0,observed
738,3,0.0,0,0.686,50,0.0,0,observed
739,3,1.0,1,0.465,50,1.0,0,observed
740,3,1.0,0,0.367,51,1.0,0,observed
741,3,0.0,1,0.377,51,0.0,0,observed
742,3,1.0,0,0.552,52,0.0,0,observed
743,3,0.0,1,0.463,52,0.0,0,observed
744,3,1.0,0,1.071,53,1.0,0,observed
745,3,0.0,1,0.795,53,0.0,0,observed
746,3,1.0,0,0.445,54,1.0,0,observed
747,3,1.0,1,0.35,54,0.0,0,observed
748,3,1.0,0,0.359,55,0.0,0,observed
749,3,0.0,1,0.31,55,0.0,0,observed
750,3,0.0,0,1.212,56,1.0,0,observed
751,3,1.0,1,0.947,56,0.0,0,observed
752,3,0.0,0,0.475,57,1.0,0,observed
753,3,1.0,1,0.909,57,1.0,0,observed
754,3,1.0,0,0.809,58,1.0,0,observed
755,3,1.0,1,0.457,58,1.0,0,observed
756,3,1.0,0,1.247,59,1.0,0,observed
757,3,0.0,1,0.284,59,0.0,0,observed
758,3,1.0,0,0.377,60,0.0,0,observed
759,3,1.0,1,0.286,60,0.0,0,observed
760,3,0.0,0,0.525,61,1.0,0,observed
761,3,0.0,1,0.356,61,0.0,0,observed
762,3,0.0,0,0.32,62,0.0,0,observed
763,3,0.0,1,0.204,62,0.0,0,observed
764,3,0.0,0,0.555,63,0.0,0,observed
765,3,1.0,1,0.793,63,0.0,0,observed
766,3,1.0,0,0.186,64,1.0,0,observed
767,3,0.0,1,0.227,64,0.0,0,observed
768,3,0.0,0,0.2,65,0.0,0,observed
769,3,1.0,1,0.326,65,0.0,0,observed
770,3,1.0,0,0.315,66,1.0,0,observed
771,3,0.0,1,0.543,66,1.0,0,observed
772,3,1.0,0,0.436,67,1.0,0,observed
773,3,1.0,1,0.363,67,1.0,0,observed
774,3,1.0,0,0.583,68,0.0,0,observed
775,3,1.0,1,0.199,68,1.0,0,observed
776,3,0.0,0,0.666,69,0.0,0,observed
777,3,0.0,1,0.309,69,1.0,0,observed
778,3,1.0,0,0.32,70,1.0,0,observed
779,3,1.0,1,0.311,70,1.0,0,observed
780,3,1.0,0,0.418,71,1.0,0,observed
781,3,0.0,1,0.464,71,0.0,0,observed
782,3,1.0,0,0.242,72,1.0,0,observed
783,3,1.0,1,0.365,72,0.0,0,observed
784,3,1.0,0,0.281,73,0.0,0,observed
785,3,0.0,1,0.181,73,1.0,0,observed
786,3,1.0,0,0.28,74,1.0,0,observed
787,3,0.0,1,1.479,74,0.0,0,observed
788,3,0.0,0,0.323,75,0.0,0,observed
789,3,1.0,1,0.262,75,1.0,0,observed
790,3,1.0,0,0.357,76,1.0,0,observed
791,3,1.0,1,1.627,76,1.0,0,observed
792,3,1.0,0,0.31,77,1.0,0,observed
793,3,1.0,1,0.284,77,1.0,0,observed
794,3,1.0,0,0.387,78,1.0,0,observed
795,3,1.0,1,0.351,78,1.0,0,observed
796,3,1.0,0,0.559,79,1.0,0,observed
797,3,1.0,1,0.379,79,1.0,0,observed
798,3,1.0,0,0.487,80,1.0,0,observed
799,3,1.0,1,0.343,80,1.0,0,observed
800,3,1.0,0,0.528,81,0.0,0,observed
801,3,1.0,1,0.448,81,0.0,0,observed
802,3,0.0,0,0.365,82,1.0,0,observed
803,3,1.0,1,0.426,82,0.0,0,observed
804,3,0.0,0,0.502,83,1.0,0,observed
805,3,0.0,1,0.384,83,1.0,0,observed
806,3,0.0,0,1.026,84,0.0,0,observed
807,3,0.0,1,0.289,84,1.0,0,observed
808,3,1.0,0,0.347,85,1.0,0,observed
809,3,0.0,1,0.499,85,0.0,0,observed
810,3,1.0,0,0.335,86,1.0,0,observed
811,3,0.0,1,0.281,86,1.0,0,observed
812,3,1.0,0,0.49,87,0.0,0,observed
813,3,1.0,1,0.403,87,1.0,0,observed
814,3,0.0,0,0.283,88,1.0,0,observed
815,3,0.0,1,0.491,88,0.0,0,observed
816,3,0.0,0,0.681,89,0.0,0,observed
817,3,0.0,1,0.674,89,0.0,0,observed
818,3,1.0,0,0.362,90,0.0,0,observed
819,3,1.0,1,0.386,90,0.0,0,observed
820,3,0.0,0,0.409,91,1.0,0,observed
821,3,0.0,1,0.515,91,1.0,0,observed
822,3,1.0,0,0.58,92,0.0,0,observed
823,3,0.0,1,0.409,92,0.0,0,observed
824,3,1.0,0,0.606,93,0.0,0,observed
825,3,0.0,1,0.503,93,0.0,0,observed
826,3,0.0,0,0.414,94,1.0,0,observed
827,3,0.0,1,0.249,94,0.0,0,observed
828,3,0.0,0,0.466,95,0.0,0,observed
829,3,1.0,1,0.331,95,1.0,0,observed
830,3,1.0,0,0.417,96,0.0,0,observed
831,3,1.0,1,0.298,96,0.0,0,observed
832,3,0.0,0,0.294,97,0.0,0,observed
833,3,0.0,1,0.283,97,1.0,0,observed
834,3,1.0,0,0.617,98,0.0,0,observed
835,3,0.0,1,0.334,98,0.0,0,observed
836,3,0.0,0,0.65,99,1.0,0,observed
837,3,1.0,1,0.463,99,1.0,0,observed
838,3,0.0,0,0.302,100,1.0,0,observed
839,3,1.0,1,0.869,100,0.0,0,observed
840,3,0.0,0,0.256,101,1.0,0,observed
841,3,0.0,1,0.289,101,1.0,0,observed
842,3,1.0,0,0.251,102,1.0,0,observed
843,3,0.0,1,0.506,102,1.0,0,observed
844,3,1.0,0,0.28,103,1.0,0,observed
845,3,0.0,1,0.903,103,1.0,0,observed
846,3,1.0,0,0.356,104,0.0,0,observed
847,3,1.0,1,0.21,104,0.0,0,observed
848,3,0.0,0,0.462,105,0.0,0,observed
849,3,0.0,1,0.764,105,0.0,0,observed
850,3,1.0,0,0.43,106,0.0,0,observed
851,3,1.0,1,0.202,106,1.0,0,observed
852,3,0.0,0,0.377,107,1.0,0,observed
853,3,1.0,1,0.24,107,0.0,0,observed
854,3,0.0,0,0.332,108,1.0,0,observed
855,3,1.0,1,0.413,108,0.0,0,observed
856,3,0.0,0,0.394,109,0.0,0,observed
857,3,0.0,1,0.3,109,1.0,0,observed
858,3,1.0,0,0.326,110,0.0,0,observed
859,3,1.0,1,0.386,110,0.0,0,observed
860,3,1.0,0,0.231,111,1.0,0,observed
861,3,0.0,1,0.416,111,1.0,0,observed
862,3,1.0,0,0.487,112,0.0,0,observed
863,3,0.0,1,0.234,112,1.0,0,observed
864,3,0.0,0,0.493,113,1.0,0,observed
865,3,1.0,1,0.214,113,0.0,0,observed
866,3,0.0,0,0.466,114,1.0,0,observed
867,3,1.0,1,0.333,114,0.0,0,observed
868,3,1.0,0,0.206,115,0.0,0,observed
869,3,1.0,1,0.213,115,0.0,0,observed
870,3,1.0,0,0.438,116,1.0,0,observed
871,3,1.0,1,0.4,116,0.0,0,observed
872,3,1.0,0,0.298,117,0.0,0,observed
873,3,0.0,1,1.412,117,1.0,0,observed
874,3,1.0,0,0.319,118,0.0,0,observed
875,3,0.0,1,0.431,118,1.0,0,observed
876,3,0.0,0,1.195,119,1.0,0,observed
877,3,0.0,1,0.586,119,1.0,0,observed
878,3,0.0,0,0.187,120,1.0,0,observed
879,3,0.0,1,0.496,120,1.0,0,observed
880,3,0.0,0,0.901,121,0.0,0,observed
881,3,1.0,1,0.406,121,1.0,0,observed
882,3,1.0,0,0.274,122,0.0,0,observed
883,3,1.0,1,0.42,122,0.0,0,observed
884,3,0.0,0,0.393,123,0.0,0,observed
885,3,0.0,1,0.441,123,0.0,0,observed
886,3,1.0,0,0.306,124,0.0,0,observed
887,3,0.0,1,0.326,124,0.0,0,observed
888,3,0.0,0,0.315,125,1.0,0,observed
889,3,1.0,1,0.356,125,1.0,0,observed
890,3,0.0,0,0.348,126,0.0,0,observed
891,3,1.0,1,1.075,126,1.0,0,observed
892,3,0.0,0,1.04,127,0.0,0,observed
893,3,1.0,1,0.264,127,1.0,0,observed
894,3,0.0,0,0.444,128,0.0,0,observed
895,3,0.0,1,0.54,128,0.0,0,observed
896,3,1.0,0,0.505,129,0.0,0,observed
897,3,1.0,1,0.473,129,1.0,0,observed
898,3,1.0,0,0.752,130,0.0,0,observed
899,3,0.0,1,1.2,130,1.0,0,observed
900,3,0.0,0,0.404,131,0.0,0,observed
901,3,1.0,1,0.505,131,0.0,0,observed
902,3,0.0,0,0.648,132,0.0,0,observed
903,3,1.0,1,0.798,132,0.0,0,observed
904,3,0.0,0,0.209,133,1.0,0,observed
905,3,0.0,1,0.614,133,0.0,0,observed
906,3,1.0,0,0.265,134,1.0,0,observed
907,3,1.0,1,0.507,134,1.0,0,observed
908,3,0.0,0,0.179,135,0.0,0,observed
909,3,0.0,1,0.29,135,1.0,0,observed
910,3,0.0,0,0.219,136,0.0,0,observed
911,3,1.0,1,0.435,136,0.0,0,observed
912,3,1.0,0,0.202,137,0.0,0,observed
913,3,1.0,1,0.608,137,1.0,0,observed
914,3,0.0,0,0.31,138,0.0,0,observed
915,3,0.0,1,1.678,138,0.0,0,observed
916,3,0.0,0,0.184,139,0.0,0,observed
917,3,1.0,1,0.409,139,0.0,0,observed
918,3,1.0,0,0.242,140,0.0,0,observed
919,3,1.0,1,0.39,140,1.0,0,observed
920,3,1.0,0,0.275,141,0.0,0,observed
921,3,0.0,1,0.407,141,0.0,0,observed
922,3,0.0,0,0.762,142,0.0,0,observed
923,3,0.0,1,0.371,142,1.0,0,observed
924,3,0.0,0,0.662,143,0.0,0,observed
925,3,0.0,1,0.484,143,0.0,0,observed
926,3,1.0,0,0.551,144,1.0,0,observed
927,3,1.0,1,0.17,144,0.0,0,observed
928,3,0.0,0,0.378,145,0.0,0,observed
929,3,1.0,1,0.317,145,0.0,0,observed
930,3,1.0,0,0.336,146,1.0,0,observed
931,3,1.0,1,0.29,146,1.0,0,observed
932,3,1.0,0,0.31,147,0.0,0,observed
933,3,0.0,1,0.169,147,0.0,0,observed
934,3,1.0,0,0.429,148,1.0,0,observed
935,3,0.0,1,0.562,148,0.0,0,observed
936,3,0.0,0,0.726,149,0.0,0,observed
937,3,1.0,1,1.983,149,1.0,0,observed
938,3,1.0,0,0.412,150,1.0,0,observed
939,3,0.0,1,0.178,150,0.0,0,observed
940,3,1.0,0,0.339,151,1.0,0,observed
941,3,1.0,1,0.824,151,1.0,0,observed
942,3,1.0,0,0.313,152,1.0,0,observed
943,3,0.0,1,0.233,152,0.0,0,observed
944,3,1.0,0,0.285,153,1.0,0,observed
945,3,1.0,1,0.514,153,1.0,0,observed
946,3,1.0,0,0.588,154,1.0,0,observed
947,3,0.0,1,1.306,154,0.0,0,observed
948,3,1.0,0,0.808,155,0.0,0,observed
949,3,0.0,1,1.149,155,0.0,0,observed
950,3,0.0,0,0.362,156,0.0,0,observed
951,3,1.0,1,0.345,156,1.0,0,observed
952,3,0.0,0,0.478,157,0.0,0,observed
953,3,0.0,1,0.374,157,0.0,0,observed
954,3,1.0,0,0.766,158,1.0,0,observed
955,3,1.0,1,0.272,158,1.0,0,observed
956,3,1.0,0,0.347,159,1.0,0,observed
957,3,0.0,1,0.695,159,0.0,0,observed
958,3,1.0,0,0.46,160,1.0,0,observed
959,3,0.0,1,0.641,160,0.0,0,observed
960,4,0.0,0,1.294,1,1.0,0,observed
961,4,1.0,1,0.98,1,0.0,0,observed
962,4,0.0,0,0.633,2,0.0,0,observed
963,4,0.0,1,1.512,2,0.0,0,observed
964,4,0.0,0,1.898,3,0.0,0,observed
965,4,0.0,1,0.961,3,0.0,0,observed
966,4,0.0,0,0.845,4,0.0,0,observed
967,4,0.0,1,0.299,4,1.0,0,observed
968,4,0.0,0,1.504,5,1.0,0,observed
969,4,0.0,1,0.663,5,0.0,0,observed
970,4,0.0,0,1.263,6,1.0,0,observed
971,4,0.0,1,0.744,6,1.0,0,observed
972,4,1.0,0,0.842,7,1.0,0,observed
973,4,0.0,1,1.087,7,0.0,0,observed
974,4,0.0,0,0.662,8,1.0,0,observed
975,4,0.0,1,0.524,8,0.0,0,observed
976,4,1.0,0,0.459,9,1.0,0,observed
977,4,1.0,1,0.633,9,1.0,0,observed
978,4,0.0,0,0.396,10,1.0,0,observed
979,4,1.0,1,0.495,10,0.0,0,observed
980,4,1.0,0,0.213,11,0.0,0,observed
981,4,1.0,1,1.681,11,0.0,0,observed
982,4,1.0,0,0.721,12,0.0,0,observed
983,4,1.0,1,0.924,12,1.0,0,observed
984,4,1.0,0,0.297,13,0.0,0,observed
985,4,0.0,1,0.993,13,1.0,0,observed
986,4,1.0,0,0.312,14,1.0,0,observed
987,4,1.0,1,0.624,14,0.0,0,observed
988,4,1.0,0,1.016,15,1.0,0,observed
989,4,1.0,1,1.027,15,0.0,0,observed
990,4,1.0,0,0.337,16,0.0,0,observed
991,4,0.0,1,0.828,16,1.0,0,observed
992,4,1.0,0,1.071,17,0.0,0,observed
993,4,1.0,1,0.595,17,0.0,0,observed
994,4,1.0,0,0.433,18,0.0,0,observed
995,4,0.0,1,0.855,18,0.0,0,observed
996,4,0.0,0,0.625,19,0.0,0,observed
997,4,0.0,1,1.069,19,0.0,0,observed
998,4,1.0,0,0.732,20,0.0,0,observed
999,4,1.0,1,0.502,20,0.0,0,observed
1000,4,0.0,0,0.351,21,0.0,0,observed
1001,4,0.0,1,0.643,21,1.0,0,observed
1002,4,1.0,0,0.358,22,0.0,0,observed
1003,4,1.0,1,0.306,22,0.0,0,observed
1004,4,1.0,0,0.708,23,0.0,0,observed
1005,4,0.0,1,0.415,23,0.0,0,observed
1006,4,1.0,0,0.575,24,0.0,0,observed
1007,4,1.0,1,0.806,24,0.0,0,observed
1008,4,0.0,0,0.202,25,1.0,0,observed
1009,4,1.0,1,0.516,25,0.0,0,observed
1010,4,0.0,0,0.951,26,0.0,0,observed
1011,4,1.0,1,0.778,26,0.0,0,observed
1012,4,1.0,0,0.269,27,0.0,0,observed
1013,4,1.0,1,1.066,27,1.0,0,observed
1014,4,1.0,0,1.686,28,1.0,0,observed
1015,4,1.0,1,0.64,28,0.0,0,observed
1016,4,0.0,0,1.29,29,0.0,0,observed
1017,4,1.0,1,1.355,29,0.0,0,observed
1018,4,1.0,0,0.721,30,0.0,0,observed
1019,4,0.0,1,1.678,30,1.0,0,observed
1020,4,0.0,0,1.426,31,1.0,0,observed
1021,4,1.0,1,1.397,31,0.0,0,observed
1022,4,0.0,0,0.889,32,1.0,0,observed
1023,4,0.0,1,0.583,32,0.0,0,observed
1024,4,0.0,0,0.83,33,1.0,0,observed
1025,4,1.0,1,1.1,33,0.0,0,observed
1026,4,0.0,0,0.87,34,1.0,0,observed
1027,4,0.0,1,1.273,34,1.0,0,observed
1028,4,0.0,0,0.4,35,1.0,0,observed
1029,4,0.0,1,1.765,35,1.0,0,observed
1030,4,0.0,0,0.63,36,1.0,0,observed
1031,4,0.0,1,1.161,36,1.0,0,observed
1032,4,0.0,0,0.603,37,1.0,0,observed
1033,4,0.0,1,1.066,37,1.0,0,observed
1034,4,0.0,0,0.396,38,1.0,0,observed
1035,4,0.0,1,0.826,38,1.0,0,observed
1036,4,0.0,0,0.505,39,1.0,0,observed
1037,4,0.0,1,0.783,39,1.0,0,observed
1038,4,0.0,0,0.385,40,1.0,0,observed
1039,4,0.0,1,0.763,40,1.0,0,observed
1040,4,0.0,0,0.488,41,0.0,0,observed
1041,4,0.0,1,0.473,41,1.0,0,observed
1042,4,1.0,0,0.931,42,1.0,0,observed
1043,4,0.0,1,0.325,42,1.0,0,observed
1044,4,1.0,0,0.399,43,1.0,0,observed
1045,4,0.0,1,0.732,43,0.0,0,observed
1046,4,1.0,0,0.454,44,1.0,0,observed
1047,4,0.0,1,2.119,44,1.0,0,observed
1048,4,1.0,0,0.319,45,1.0,0,observed
1049,4,1.0,1,1.118,45,1.0,0,observed
1050,4,1.0,0,0.385,46,1.0,0,observed
1051,4,0.0,1,2.349,46,1.0,0,observed
1052,4,1.0,0,0.654,47,0.0,0,observed
1053,4,0.0,1,0.554,47,1.0,0,observed
1054,4,0.0,0,0.508,48,0.0,0,observed
1055,4,0.0,1,0.737,48,0.0,0,observed
1056,4,0.0,0,1.246,49,0.0,0,observed
1057,4,1.0,1,0.471,49,1.0,0,observed
1058,4,1.0,0,1.602,50,1.0,0,observed
1059,4,0.0,1,0.966,50,0.0,0,observed
1060,4,1.0,0,0.63,51,1.0,0,observed
1061,4,0.0,1,2.202,51,0.0,0,observed
1062,4,1.0,0,0.454,52,0.0,0,observed
1063,4,1.0,1,1.953,52,0.0,0,observed
1064,4,1.0,0,1.394,53,0.0,0,observed
1065,4,0.0,1,0.53,53,0.0,0,observed
1066,4,0.0,0,0.662,54,0.0,0,observed
1067,4,0.0,1,1.315,54,0.0,0,observed
1068,4,1.0,0,0.542,55,1.0,0,observed
1069,4,1.0,1,1.163,55,0.0,0,observed
1070,4,1.0,0,0.473,56,0.0,0,observed
1071,4,0.0,1,1.856,56,1.0,0,observed
1072,4,1.0,0,1.224,57,1.0,0,observed
1073,4,0.0,1,0.488,57,1.0,0,observed
1074,4,1.0,0,0.55,58,0.0,0,observed
1075,4,0.0,1,0.842,58,1.0,0,observed
1076,4,1.0,0,1.141,59,1.0,0,observed
1077,4,0.0,1,0.684,59,0.0,0,observed
1078,4,0.0,0,1.331,60,0.0,0,observed
1079,4,0.0,1,0.659,60,1.0,0,observed
1080,4,1.0,0,0.917,61,0.0,0,observed
1081,4,0.0,1,0.549,61,0.0,0,observed
1082,4,0.0,0,1.277,62,1.0,0,observed
1083,4,1.0,1,0.566,62,1.0,0,observed
1084,4,0.0,0,0.634,63,1.0,0,observed
1085,4,1.0,1,0.773,63,1.0,0,observed
1086,4,0.0,0,0.549,64,0.0,0,observed
1087,4,0.0,1,1.315,64,1.0,0,observed
1088,4,1.0,0,1.787,65,0.0,0,observed
1089,4,1.0,1,0.94,65,1.0,0,observed
1090,4,1.0,0,1.286,66,1.0,0,observed
1091,4,1.0,1,0.426,66,1.0,0,observed
1092,4,1.0,0,0.49,67,0.0,0,observed
1093,4,0.0,1,0.794,67,0.0,0,observed
1094,4,0.0,0,1.057,68,1.0,0,observed
1095,4,1.0,1,0.493,68,1.0,0,observed
1096,4,0.0,0,0.879,69,1.0,0,observed
1097,4,1.0,1,0.466,69,1.0,0,observed
1098,4,0.0,0,0.506,70,0.0,0,observed
1099,4,1.0,1,1.086,70,1.0,0,observed
1100,4,1.0,0,0.751,71,1.0,0,observed
1101,4,1.0,1,0.648,71,1.0,0,observed
1102,4,1.0,0,0.618,72,1.0,0,observed
1103,4,1.0,1,0.954,72,1.0,0,observed
1104,4,1.0,0,0.796,73,1.0,0,observed
1105,4,1.0,1,0.499,73,1.0,0,observed
1106,4,1.0,0,0.576,74,1.0,0,observed
1107,4,1.0,1,0.918,74,1.0,0,observed
1108,4,1.0,0,1.177,75,1.0,0,observed
1109,4,1.0,1,0.641,75,1.0,0,observed
1110,4,1.0,0,0.499,76,1.0,0,observed
1111,4,1.0,1,0.426,76,1.0,0,observed
1112,4,1.0,0,0.398,77,1.0,0,observed
1113,4,1.0,1,0.386,77,1.0,0,observed
1114,4,1.0,0,0.616,78,1.0,0,observed
1115,4,1.0,1,0.363,78,1.0,0,observed
1116,4,1.0,0,0.513,79,1.0,0,observed
1117,4,1.0,1,0.406,79,1.0,0,observed
1118,4,1.0,0,0.311,80,1.0,0,observed
1119,4,1.0,1,0.345,80,1.0,0,observed
1120,4,1.0,0,0.558,81,1.0,0,observed
1121,4,1.0,1,0.452,81,1.0,0,observed
1122,4,1.0,0,0.332,82,0.0,0,observed
1123,4,1.0,1,0.365,82,0.0,0,observed
1124,4,0.0,0,0.637,83,0.0,0,observed
1125,4,0.0,1,0.342,83,1.0,0,observed
1126,4,1.0,0,0.609,84,1.0,0,observed
1127,4,0.0,1,0.588,84,1.0,0,observed
1128,4,1.0,0,0.607,85,0.0,0,observed
1129,4,0.0,1,0.876,85,1.0,0,observed
1130,4,1.0,0,1.914,86,0.0,0,observed
1131,4,0.0,1,0.42,86,0.0,0,observed
1132,4,0.0,0,0.633,87,0.0,0,observed
1133,4,1.0,1,0.702,87,1.0,0,observed
1134,4,1.0,0,0.945,88,1.0,0,observed
1135,4,1.0,1,0.547,88,1.0,0,observed
1136,4,1.0,0,0.536,89,1.0,0,observed
1137,4,1.0,1,0.723,89,1.0,0,observed
1138,4,0.0,0,1.583,90,1.0,0,observed
1139,4,1.0,1,0.84,90,1.0,0,observed
1140,4,0.0,0,1.581,91,0.0,0,observed
1141,4,1.0,1,0.694,91,1.0,0,observed
1142,4,0.0,0,1.473,92,1.0,0,observed
1143,4,1.0,1,0.541,92,0.0,0,observed
1144,4,0.0,0,0.364,93,0.0,0,observed
1145,4,0.0,1,0.675,93,1.0,0,observed
1146,4,0.0,0,1.425,94,1.0,0,observed
1147,4,0.0,1,0.408,94,1.0,0,observed
1148,4,0.0,0,0.452,95,0.0,0,observed
1149,4,0.0,1,0.35,95,1.0,0,observed
1150,4,1.0,0,1.454,96,0.0,0,observed
1151,4,0.0,1,0.567,96,1.0,0,observed
1152,4,0.0,0,0.94,97,0.0,0,observed
1153,4,0.0,1,0.565,97,1.0,0,observed
1154,4,1.0,0,1.234,98,0.0,0,observed
1155,4,0.0,1,0.425,98,1.0,0,observed
1156,4,1.0,0,0.528,99,0.0,0,observed
1157,4,0.0,1,0.44,99,1.0,0,observed
1158,4,0.0,0,1.812,100,0.0,0,observed
1159,4,0.0,1,0.407,100,1.0,0,observed
1160,4,1.0,0,0.799,101,0.0,0,observed
1161,4,0.0,1,0.407,101,1.0,0,observed
1162,4,0.0,0,1.653,102,1.0,0,observed
1163,4,0.0,1,0.393,102,0.0,0,observed
1164,4,0.0,0,1.489,103,1.0,0,observed
1165,4,1.0,1,0.35,103,0.0,0,observed
1166,4,0.0,0,0.438,104,1.0,0,observed
1167,4,0.0,1,0.643,104,1.0,0,observed
1168,4,0.0,0,0.86,105,1.0,0,observed
1169,4,0.0,1,0.618,105,1.0,0,observed
1170,4,1.0,0,1.29,106,0.0,0,observed
1171,4,0.0,1,0.376,106,0.0,0,observed
1172,4,0.0,0,0.838,107,1.0,0,observed
1173,4,0.0,1,0.951,107,1.0,0,observed
1174,4,0.0,0,0.556,108,1.0,0,observed
1175,4,0.0,1,0.484,108,0.0,0,observed
1176,4,0.0,0,0.658,109,0.0,0,observed
1177,4,1.0,1,0.694,109,0.0,0,observed
1178,4,0.0,0,1.396,110,1.0,0,observed
1179,4,0.0,1,0.395,110,1.0,0,observed
1180,4,1.0,0,1.391,111,0.0,0,observed
1181,4,0.0,1,0.594,111,1.0,0,observed
1182,4,0.0,0,0.733,112,1.0,0,observed
1183,4,0.0,1,0.429,112,0.0,0,observed
1184,4,0.0,0,0.516,113,1.0,0,observed
1185,4,0.0,1,0.591,113,1.0,0,observed
1186,4,0.0,0,1.598,114,1.0,0,observed
1187,4,0.0,1,0.4,114,0.0,0,observed
1188,4,0.0,0,0.975,115,1.0,0,observed
1189,4,0.0,1,1.015,115,1.0,0,observed
1190,4,0.0,0,0.568,116,1.0,0,observed
1191,4,1.0,1,0.797,116,0.0,0,observed
1192,4,0.0,0,0.757,117,1.0,0,observed
1193,4,0.0,1,0.373,117,1.0,0,observed
1194,4,0.0,0,0.498,118,1.0,0,observed
1195,4,0.0,1,0.655,118,1.0,0,observed
1196,4,0.0,0,0.638,119,1.0,0,observed
1197,4,0.0,1,0.475,119,1.0,0,observed
1198,4,1.0,0,1.356,120,0.0,0,observed
1199,4,0.0,1,0.835,120,1.0,0,observed
1200,4,0.0,0,0.302,121,0.0,0,observed
1201,4,0.0,1,0.567,121,0.0,0,observed
1202,4,1.0,0,0.722,122,0.0,0,observed
1203,4,0.0,1,0.844,122,0.0,0,observed
1204,4,0.0,0,0.322,123,1.0,0,observed
1205,4,0.0,1,1.37,123,0.0,0,observed
1206,4,0.0,0,0.394,124,0.0,0,observed
1207,4,1.0,1,2.364,124,0.0,0,observed
1208,4,1.0,0,0.955,125,1.0,0,observed
1209,4,0.0,1,0.552,125,1.0,0,observed
1210,4,1.0,0,1.271,126,1.0,0,observed
1211,4,0.0,1,0.467,126,1.0,0,observed
1212,4,1.0,0,0.568,127,0.0,0,observed
1213,4,0.0,1,0.368,127,1.0,0,observed
1214,4,0.0,0,0.82,128,1.0,0,observed
1215,4,0.0,1,0.405,128,0.0,0,observed
1216,4,0.0,0,0.69,129,0.0,0,observed
1217,4,0.0,1,1.84,129,0.0,0,observed
1218,4,1.0,0,0.906,130,1.0,0,observed
1219,4,0.0,1,1.374,130,0.0,0,observed
1220,4,0.0,0,0.419,131,0.0,0,observed
1221,4,1.0,1,0.611,131,1.0,0,observed
1222,4,1.0,0,0.547,132,1.0,0,observed
1223,4,0.0,1,1.321,132,1.0,0,observed
1224,4,1.0,0,0.371,133,0.0,0,observed
1225,4,0.0,1,0.969,133,0.0,0,observed
1226,4,1.0,0,0.733,134,1.0,0,observed
1227,4,0.0,1,0.627,134,0.0,0,observed
1228,4,0.0,0,0.754,135,1.0,0,observed
1229,4,0.0,1,1.28,135,1.0,0,observed
1230,4,1.0,0,1.535,136,1.0,0,observed
1231,4,1.0,1,0.829,136,1.0,0,observed
1232,4,0.0,0,1.498,137,1.0,0,observed
1233,4,0.0,1,0.518,137,0.0,0,observed
1234,4,0.0,0,0.779,138,0.0,0,observed
1235,4,0.0,1,1.289,138,0.0,0,observed
1236,4,1.0,0,0.688,139,1.0,0,observed
1237,4,0.0,1,1.4,139,1.0,0,observed
1238,4,1.0,0,0.281,140,1.0,0,observed
1239,4,0.0,1,0.543,140,0.0,0,observed
1240,4,1.0,0,0.328,141,0.0,0,observed
1241,4,0.0,1,0.61,141,1.0,0,observed
1242,4,1.0,0,0.414,142,1.0,0,observed
1243,4,0.0,1,0.641,142,0.0,0,observed
1244,4,0.0,0,0.984,143,0.0,0,observed
1245,4,0.0,1,0.363,143,0.0,0,observed
1246,4,1.0,0,0.645,144,1.0,0,observed
1247,4,1.0,1,1.422,144,0.0,0,observed
1248,4,1.0,0,0.491,145,1.0,0,observed
1249,4,0.0,1,0.977,145,1.0,0,observed
1250,4,1.0,0,0.414,146,1.0,0,observed
1251,4,0.0,1,1.054,146,0.0,0,observed
1252,4,1.0,0,0.468,147,1.0,0,observed
1253,4,0.0,1,0.666,147,0.0,0,observed
1254,4,1.0,0,0.901,148,1.0,0,observed
1255,4,1.0,1,2.377,148,1.0,0,observed
1256,4,1.0,0,1.041,149,1.0,0,observed
1257,4,1.0,1,0.93,149,0.0,0,observed
1258,4,1.0,0,0.701,150,1.0,0,observed
1259,4,0.0,1,0.996,150,0.0,0,observed
1260,4,1.0,0,0.486,151,0.0,0,observed
1261,4,0.0,1,1.225,151,0.0,0,observed
1262,4,1.0,0,0.557,152,0.0,0,observed
1263,4,0.0,1,1.153,152,0.0,0,observed
1264,4,1.0,0,0.23,153,1.0,0,observed
1265,4,1.0,1,1.077,153,1.0,0,observed
1266,4,1.0,0,0.43,154,1.0,0,observed
1267,4,0.0,1,1.939,154,1.0,0,observed
1268,4,0.0,0,1.189,155,1.0,0,observed
1269,4,0.0,1,0.662,155,0.0,0,observed
1270,4,1.0,0,0.49,156,1.0,0,observed
1271,4,0.0,1,0.422,156,0.0,0,observed
1272,4,1.0,0,0.724,157,1.0,0,observed
1273,4,1.0,1,0.541,157,1.0,0,observed
1274,4,0.0,0,0.617,158,0.0,0,observed
1275,4,1.0,1,0.484,158,1.0,0,observed
1276,4,1.0,0,0.821,159,0.0,0,observed
1277,4,0.0,1,0.417,159,0.0,0,observed
1278,4,1.0,0,0.471,160,1.0,0,observed
1279,4,1.0,1,1.171,160,1.0,0,observed
1280,5,0.0,0,0.795,1,0.0,0,observed
1281,5,1.0,1,0.753,1,1.0,0,observed
1282,5,1.0,0,0.689,2,0.0,0,observed
1283,5,1.0,1,0.312,2,0.0,0,observed
1284,5,0.0,0,0.855,3,0.0,0,observed
1285,5,1.0,1,0.408,3,0.0,0,observed
1286,5,0.0,0,0.558,4,0.0,0,observed
1287,5,0.0,1,0.292,4,0.0,0,observed
1288,5,0.0,0,0.574,5,0.0,0,observed
1289,5,1.0,1,0.363,5,1.0,0,observed
1290,5,1.0,0,1.168,6,0.0,0,observed
1291,5,1.0,1,0.291,6,1.0,0,observed
1292,5,1.0,0,0.366,7,1.0,0,observed
1293,5,1.0,1,0.29,7,1.0,0,observed
1294,5,1.0,0,1.063,8,0.0,0,observed
1295,5,1.0,1,0.336,8,0.0,0,observed
1296,5,1.0,0,1.053,9,1.0,0,observed
1297,5,0.0,1,0.289,9,0.0,0,observed
1298,5,1.0,0,0.879,10,1.0,0,observed
1299,5,1.0,1,0.698,10,0.0,0,observed
1300,5,1.0,0,0.363,11,1.0,0,observed
1301,5,0.0,1,0.709,11,0.0,0,observed
1302,5,1.0,0,0.366,12,0.0,0,observed
1303,5,1.0,1,0.357,12,1.0,0,observed
1304,5,0.0,0,0.416,13,1.0,0,observed
1305,5,1.0,1,0.278,13,0.0,0,observed
1306,5,0.0,0,0.385,14,0.0,0,observed
1307,5,1.0,1,0.57,14,0.0,0,observed
1308,5,1.0,0,0.304,15,0.0,0,observed
1309,5,0.0,1,0.935,15,1.0,0,observed
1310,5,0.0,0,0.46,16,1.0,0,observed
1311,5,0.0,1,0.391,16,1.0,0,observed
1312,5,0.0,0,0.728,17,1.0,0,observed
1313,5,0.0,1,0.341,17,1.0,0,observed
1314,5,0.0,0,0.316,18,0.0,0,observed
1315,5,0.0,1,0.276,18,1.0,0,observed
1316,5,1.0,0,0.448,19,0.0,0,observed
1317,5,0.0,1,0.394,19,1.0,0,observed
1318,5,0.0,0,0.707,20,0.0,0,observed
1319,5,0.0,1,0.264,20,0.0,0,observed
1320,5,0.0,0,0.412,21,0.0,0,observed
1321,5,0.0,1,0.668,21,0.0,0,observed
1322,5,1.0,0,0.617,22,0.0,0,observed
1323,5,1.0,1,0.622,22,0.0,0,observed
1324,5,1.0,0,0.819,23,0.0,0,observed
1325,5,0.0,1,0.986,23,1.0,0,observed
1326,5,1.0,0,0.943,24,0.0,0,observed
1327,5,0.0,1,0.465,24,1.0,0,observed
1328,5,0.0,0,0.918,25,1.0,0,observed
1329,5,0.0,1,0.328,25,1.0,0,observed
1330,5,0.0,0,0.647,26,1.0,0,observed
1331,5,0.0,1,0.29,26,1.0,0,observed
1332,5,0.0,0,0.459,27,1.0,0,observed
1333,5,0.0,1,0.271,27,0.0,0,observed
1334,5,0.0,0,0.306,28,1.0,0,observed
1335,5,1.0,1,0.385,28,0.0,0,observed
1336,5,0.0,0,0.31,29,1.0,0,observed
1337,5,0.0,1,0.446,29,1.0,0,observed
1338,5,0.0,0,0.412,30,1.0,0,observed
1339,5,0.0,1,0.315,30,1.0,0,observed
1340,5,0.0,0,0.548,31,1.0,0,observed
1341,5,0.0,1,0.315,31,0.0,0,observed
1342,5,0.0,0,0.347,32,1.0,0,observed
1343,5,1.0,1,0.454,32,0.0,0,observed
1344,5,0.0,0,0.302,33,1.0,0,observed
1345,5,0.0,1,0.503,33,1.0,0,observed
1346,5,0.0,0,0.343,34,1.0,0,observed
1347,5,0.0,1,0.357,34,1.0,0,observed
1348,5,0.0,0,0.367,35,1.0,0,observed
1349,5,0.0,1,0.274,35,1.0,0,observed
1350,5,0.0,0,0.327,36,1.0,0,observed
1351,5,0.0,1,0.334,36,1.0,0,observed
1352,5,0.0,0,0.307,37,1.0,0,observed
1353,5,0.0,1,0.308,37,1.0,0,observed
1354,5,0.0,0,0.36,38,1.0,0,observed
1355,5,0.0,1,0.293,38,1.0,0,observed
1356,5,0.0,0,0.32,39,1.0,0,observed
1357,5,0.0,1,0.394,39,1.0,0,observed
1358,5,0.0,0,0.379,40,1.0,0,observed
1359,5,0.0,1,0.291,40,1.0,0,observed
1360,5,0.0,0,0.313,41,0.0,0,observed
1361,5,0.0,1,0.324,41,1.0,0,observed
1362,5,1.0,0,0.317,42,0.0,0,observed
1363,5,0.0,1,0.305,42,1.0,0,observed
1364,5,0.0,0,0.353,43,0.0,0,observed
1365,5,0.0,1,0.264,43,0.0,0,observed
1366,5,0.0,0,0.322,44,1.0,0,observed
1367,5,0.0,1,0.398,44,1.0,0,observed
1368,5,0.0,0,0.346,45,1.0,0,observed
1369,5,0.0,1,0.445,45,1.0,0,observed
1370,5,0.0,0,0.245,46,0.0,0,observed
1371,5,0.0,1,0.372,46,1.0,0,observed
1372,5,1.0,0,0.255,47,1.0,0,observed
1373,5,0.0,1,0.317,47,1.0,0,observed
1374,5,1.0,0,0.455,48,1.0,0,observed
1375,5,0.0,1,0.282,48,1.0,0,observed
1376,5,1.0,0,0.435,49,0.0,0,observed
1377,5,0.0,1,0.351,49,1.0,0,observed
1378,5,1.0,0,1.372,50,0.0,0,observed
1379,5,0.0,1,0.328,50,1.0,0,observed
1380,5,0.0,0,0.296,51,0.0,0,observed
1381,5,0.0,1,0.362,51,1.0,0,observed
1382,5,1.0,0,0.326,52,1.0,0,observed
1383,5,0.0,1,0.302,52,0.0,0,observed
1384,5,1.0,0,0.432,53,1.0,0,observed
1385,5,0.0,1,0.245,53,0.0,0,observed
1386,5,1.0,0,0.309,54,1.0,0,observed
1387,5,0.0,1,0.529,54,0.0,0,observed
1388,5,1.0,0,0.315,55,1.0,0,observed
1389,5,1.0,1,0.546,55,1.0,0,observed
1390,5,1.0,0,0.307,56,0.0,0,observed
1391,5,1.0,1,0.325,56,1.0,0,observed
1392,5,0.0,0,0.398,57,1.0,0,observed
1393,5,1.0,1,0.301,57,1.0,0,observed
1394,5,0.0,0,0.418,58,0.0,0,observed
1395,5,1.0,1,0.351,58,1.0,0,observed
1396,5,0.0,0,1.585,59,0.0,0,observed
1397,5,1.0,1,0.316,59,1.0,0,observed
1398,5,1.0,0,0.266,60,1.0,0,observed
1399,5,1.0,1,0.313,60,0.0,0,observed
1400,5,1.0,0,1.555,61,1.0,0,observed
1401,5,0.0,1,0.341,61,0.0,0,observed
1402,5,1.0,0,0.369,62,0.0,0,observed
1403,5,1.0,1,0.308,62,0.0,0,observed
1404,5,0.0,0,0.427,63,1.0,0,observed
1405,5,0.0,1,0.421,63,0.0,0,observed
1406,5,0.0,0,0.551,64,0.0,0,observed
1407,5,1.0,1,0.463,64,1.0,0,observed
1408,5,0.0,0,0.82,65,1.0,0,observed
1409,5,1.0,1,0.45,65,1.0,0,observed
1410,5,0.0,0,0.293,66,0.0,0,observed
1411,5,1.0,1,0.317,66,1.0,0,observed
1412,5,0.0,0,0.384,67,0.0,0,observed
1413,5,1.0,1,0.293,67,1.0,0,observed
1414,5,1.0,0,0.458,68,1.0,0,observed
1415,5,1.0,1,0.328,68,1.0,0,observed
1416,5,1.0,0,0.273,69,1.0,0,observed
1417,5,1.0,1,0.741,69,1.0,0,observed
1418,5,1.0,0,0.232,70,1.0,0,observed
1419,5,1.0,1,0.312,70,1.0,0,observed
1420,5,1.0,0,0.727,71,1.0,0,observed
1421,5,0.0,1,0.245,71,0.0,0,observed
1422,5,1.0,0,0.739,72,1.0,0,observed
1423,5,1.0,1,0.325,72,1.0,0,observed
1424,5,1.0,0,0.336,73,1.0,0,observed
1425,5,1.0,1,0.372,73,1.0,0,observed
1426,5,1.0,0,0.435,74,0.0,0,observed
1427,5,1.0,1,0.32,74,1.0,0,observed
1428,5,0.0,0,0.563,75,0.0,0,observed
1429,5,1.0,1,0.375,75,1.0,0,observed
1430,5,1.0,0,0.456,76,1.0,0,observed
1431,5,1.0,1,0.298,76,1.0,0,observed
1432,5,1.0,0,0.321,77,1.0,0,observed
1433,5,1.0,1,0.303,77,1.0,0,observed
1434,5,1.0,0,0.321,78,1.0,0,observed
1435,5,1.0,1,0.508,78,1.0,0,observed
1436,5,1.0,0,0.333,79,0.0,0,observed
1437,5,1.0,1,0.316,79,1.0,0,observed
1438,5,1.0,0,1.097,80,1.0,0,observed
1439,5,1.0,1,0.329,80,1.0,0,observed
1440,5,1.0,0,0.388,81,0.0,0,observed
1441,5,1.0,1,0.311,81,1.0,0,observed
1442,5,0.0,0,0.378,82,0.0,0,observed
1443,5,1.0,1,0.317,82,1.0,0,observed
1444,5,1.0,0,0.351,83,0.0,0,observed
1445,5,1.0,1,0.312,83,0.0,0,observed
1446,5,0.0,0,0.268,84,1.0,0,observed
1447,5,1.0,1,0.27,84,1.0,0,observed
1448,5,0.0,0,0.295,85,1.0,0,observed
1449,5,1.0,1,0.527,85,0.0,0,observed
1450,5,0.0,0,0.476,86,1.0,0,observed
1451,5,1.0,1,0.208,86,0.0,0,observed
1452,5,0.0,0,0.305,87,0.0,0,observed
1453,5,0.0,1,0.363,87,0.0,0,observed
1454,5,1.0,0,0.304,88,0.0,0,observed
1455,5,0.0,1,0.226,88,0.0,0,observed
1456,5,1.0,0,0.55,89,1.0,0,observed
1457,5,0.0,1,0.252,89,0.0,0,observed
1458,5,1.0,0,0.48,90,0.0,0,observed
1459,5,1.0,1,0.357,90,0.0,0,observed
1460,5,0.0,0,0.454,91,1.0,0,observed
1461,5,0.0,1,0.753,91,0.0,0,observed
1462,5,0.0,0,0.317,92,1.0,0,observed
1463,5,0.0,1,0.302,92,1.0,0,observed
1464,5,0.0,0,0.302,93,0.0,0,observed
1465,5,0.0,1,0.577,93,1.0,0,observed
1466,5,0.0,0,0.277,94,1.0,0,observed
1467,5,0.0,1,0.376,94,0.0,0,observed
1468,5,0.0,0,0.314,95,1.0,0,observed
1469,5,0.0,1,0.461,95,1.0,0,observed
1470,5,0.0,0,0.636,96,0.0,0,observed
1471,5,0.0,1,0.313,96,0.0,0,observed
1472,5,1.0,0,0.319,97,0.0,0,observed
1473,5,1.0,1,0.44,97,0.0,0,observed
1474,5,1.0,0,0.511,98,0.0,0,observed
1475,5,0.0,1,0.303,98,1.0,0,observed
1476,5,0.0,0,0.545,99,0.0,0,observed
1477,5,0.0,1,0.345,99,1.0,0,observed
1478,5,1.0,0,0.645,100,0.0,0,observed
1479,5,0.0,1,0.269,100,1.0,0,observed
1480,5,1.0,0,0.433,101,0.0,0,observed
1481,5,0.0,1,0.356,101,1.0,0,observed
1482,5,0.0,0,0.557,102,1.0,0,observed
1483,5,0.0,1,0.336,102,1.0,0,observed
1484,5,0.0,0,0.326,103,1.0,0,observed
1485,5,0.0,1,0.288,103,1.0,0,observed
1486,5,0.0,0,0.43,104,1.0,0,observed
1487,5,0.0,1,0.323,104,1.0,0,observed
1488,5,0.0,0,0.509,105,1.0,0,observed
1489,5,0.0,1,0.32,105,1.0,0,observed
1490,5,0.0,0,0.6,106,1.0,0,observed
1491,5,0.0,1,0.267,106,0.0,0,observed
1492,5,0.0,0,0.392,107,1.0,0,observed
1493,5,1.0,1,0.327,107,0.0,0,observed
1494,5,0.0,0,0.357,108,0.0,0,observed
1495,5,1.0,1,0.242,108,0.0,0,observed
1496,5,1.0,0,0.474,109,0.0,0,observed
1497,5,0.0,1,0.295,109,1.0,0,observed
1498,5,0.0,0,0.443,110,0.0,0,observed
1499,5,0.0,1,0.339,110,1.0,0,observed
1500,5,1.0,0,0.641,111,1.0,0,observed
1501,5,0.0,1,0.322,111,0.0,0,observed
1502,5,1.0,0,0.312,112,1.0,0,observed
1503,5,1.0,1,0.348,112,0.0,0,observed
1504,5,1.0,0,0.555,113,0.0,0,observed
1505,5,0.0,1,0.274,113,1.0,0,observed
1506,5,1.0,0,0.949,114,1.0,0,observed
1507,5,0.0,1,0.308,114,0.0,0,observed
1508,5,1.0,0,0.79,115,0.0,0,observed
1509,5,0.0,1,0.247,115,1.0,0,observed
1510,5,0.0,0,0.901,116,1.0,0,observed
1511,5,0.0,1,0.242,116,1.0,0,observed
1512,5,0.0,0,1.168,117,1.0,0,observed
1513,5,0.0,1,0.497,117,1.0,0,observed
1514,5,0.0,0,0.514,118,0.0,0,observed
1515,5,0.0,1,0.326,118,1.0,0,observed
1516,5,1.0,0,0.358,119,0.0,0,observed
1517,5,0.0,1,0.287,119,1.0,0,observed
1518,5,0.0,0,0.69,120,1.0,0,observed
1519,5,1.0,1,0.766,120,0.0,0,observed
1520,5,0.0,0,0.772,121,0.0,0,observed
1521,5,0.0,1,0.39,121,1.0,0,observed
1522,5,1.0,0,0.805,122,0.0,0,observed
1523,5,0.0,1,0.262,122,0.0,0,observed
1524,5,0.0,0,0.623,123,0.0,0,observed
1525,5,0.0,1,0.412,123,0.0,0,observed
1526,5,1.0,0,0.294,124,1.0,0,observed
1527,5,1.0,1,0.334,124,0.0,0,observed
1528,5,1.0,0,0.288,125,1.0,0,observed
1529,5,0.0,1,0.392,125,1.0,0,observed
1530,5,1.0,0,0.35,126,0.0,0,observed
1531,5,0.0,1,0.335,126,1.0,0,observed
1532,5,1.0,0,0.712,127,0.0,0,observed
1533,5,0.0,1,0.391,127,1.0,0,observed
1534,5,1.0,0,0.456,128,1.0,0,observed
1535,5,0.0,1,0.274,128,0.0,0,observed
1536,5,1.0,0,0.62,129,0.0,0,observed
1537,5,0.0,1,0.287,129,0.0,0,observed
1538,5,0.0,0,1.124,130,1.0,0,observed
1539,5,1.0,1,0.379,130,0.0,0,observed
1540,5,0.0,0,0.336,131,0.0,0,observed
1541,5,1.0,1,0.307,131,0.0,0,observed
1542,5,0.0,0,0.508,132,0.0,0,observed
1543,5,1.0,1,0.563,132,0.0,0,observed
1544,5,0.0,0,0.869,133,1.0,0,observed
1545,5,0.0,1,0.555,133,1.0,0,observed
1546,5,0.0,0,0.296,134,0.0,0,observed
1547,5,0.0,1,0.496,134,0.0,0,observed
1548,5,0.0,0,0.522,135,1.0,0,observed
1549,5,0.0,1,0.421,135,0.0,0,observed
1550,5,0.0,0,0.329,136,0.0,0,observed
1551,5,0.0,1,0.438,136,0.0,0,observed
1552,5,0.0,0,0.702,137,0.0,0,observed
1553,5,1.0,1,0.283,137,1.0,0,observed
1554,5,1.0,0,0.306,138,1.0,0,observed
1555,5,1.0,1,0.309,138,1.0,0,observed
1556,5,0.0,0,0.302,139,0.0,0,observed
1557,5,1.0,1,0.381,139,1.0,0,observed
1558,5,0.0,0,0.299,140,0.0,0,observed
1559,5,1.0,1,0.311,140,1.0,0,observed
1560,5,0.0,0,1.029,141,1.0,0,observed
1561,5,1.0,1,0.329,141,1.0,0,observed
1562,5,0.0,0,0.382,142,1.0,0,observed
1563,5,1.0,1,0.425,142,1.0,0,observed
1564,5,0.0,0,0.337,143,1.0,0,observed
1565,5,1.0,1,0.604,143,1.0,0,observed
1566,5,0.0,0,0.351,144,0.0,0,observed
1567,5,1.0,1,0.345,144,0.0,0,observed
1568,5,1.0,0,1.969,145,0.0,0,observed
1569,5,0.0,1,0.305,145,0.0,0,observed
1570,5,0.0,0,0.533,146,1.0,0,observed
1571,5,1.0,1,1.955,146,1.0,0,observed
1572,5,0.0,0,0.423,147,0.0,0,observed
1573,5,1.0,1,0.792,147,1.0,0,observed
1574,5,1.0,0,1.116,148,1.0,0,observed
1575,5,1.0,1,0.559,148,1.0,0,observed
1576,5,1.0,0,1.132,149,1.0,0,observed
1577,5,1.0,1,0.308,149,0.0,0,observed
1578,5,1.0,0,0.503,150,1.0,0,observed
1579,5,0.0,1,1.939,150,1.0,0,observed
1580,5,1.0,0,0.371,151,1.0,0,observed
1581,5,0.0,1,0.27,151,0.0,0,observed
1582,5,1.0,0,0.42,152,1.0,0,observed
1583,5,0.0,1,0.412,152,0.0,0,observed
1584,5,1.0,0,0.507,153,1.0,0,observed
1585,5,1.0,1,0.501,153,1.0,0,observed
1586,5,1.0,0,0.481,154,1.0,0,observed
1587,5,1.0,1,0.346,154,1.0,0,observed
1588,5,1.0,0,0.263,155,1.0,0,observed
1589,5,1.0,1,0.323,155,1.0,0,observed
1590,5,1.0,0,0.269,156,1.0,0,observed
1591,5,1.0,1,0.244,156,1.0,0,observed
1592,5,1.0,0,0.292,157,1.0,0,observed
1593,5,1.0,1,0.343,157,1.0,0,observed
1594,5,1.0,0,0.281,158,1.0,0,observed
1595,5,1.0,1,0.392,158,1.0,0,observed
1596,5,1.0,0,0.267,159,1.0,0,observed
1597,5,1.0,1,0.351,159,1.0,0,observed
1598,5,1.0,0,0.225,160,1.0,0,observed
1599,5,1.0,1,0.502,160,1.0,0,observed
1600,6,0.0,0,1.283,1,0.0,0,observed
1601,6,0.0,1,0.334,1,0.0,0,observed
1602,6,1.0,0,0.843,2,0.0,0,observed
1603,6,0.0,1,0.421,2,0.0,0,observed
1604,6,0.0,0,0.857,3,1.0,0,observed
1605,6,1.0,1,0.611,3,0.0,0,observed
1606,6,1.0,0,1.146,4,0.0,0,observed
1607,6,0.0,1,0.544,4,1.0,0,observed
1608,6,1.0,0,0.44,5,0.0,0,observed
1609,6,0.0,1,0.496,5,1.0,0,observed
1610,6,1.0,0,1.306,6,0.0,0,observed
1611,6,0.0,1,0.467,6,0.0,0,observed
1612,6,1.0,0,0.638,7,0.0,0,observed
1613,6,0.0,1,0.839,7,1.0,0,observed
1614,6,0.0,0,0.872,8,0.0,0,observed
1615,6,0.0,1,0.399,8,0.0,0,observed
1616,6,1.0,0,0.77,9,0.0,0,observed
1617,6,0.0,1,0.276,9,1.0,0,observed
1618,6,1.0,0,1.843,10,1.0,0,observed
1619,6,0.0,1,0.484,10,1.0,0,observed
1620,6,0.0,0,0.942,11,0.0,0,observed
1621,6,0.0,1,0.873,11,1.0,0,observed
1622,6,0.0,0,0.643,12,1.0,0,observed
1623,6,0.0,1,0.728,12,1.0,0,observed
1624,6,0.0,0,0.971,13,1.0,0,observed
1625,6,1.0,1,0.873,13,0.0,0,observed
1626,6,0.0,0,0.374,14,0.0,0,observed
1627,6,0.0,1,0.441,14,1.0,0,observed
1628,6,1.0,0,0.614,15,1.0,0,observed
1629,6,1.0,1,0.819,15,0.0,0,observed
1630,6,1.0,0,1.008,16,0.0,0,observed
1631,6,1.0,1,0.937,16,1.0,0,observed
1632,6,1.0,0,0.517,17,0.0,0,observed
1633,6,0.0,1,0.444,17,1.0,0,observed
1634,6,0.0,0,0.613,18,1.0,0,observed
1635,6,0.0,1,1.271,18,0.0,0,observed
1636,6,0.0,0,0.648,19,1.0,0,observed
1637,6,1.0,1,0.388,19,0.0,0,observed
1638,6,1.0,0,0.65,20,1.0,0,observed
1639,6,0.0,1,0.385,20,1.0,0,observed
1640,6,1.0,0,1.532,21,1.0,0,observed
1641,6,0.0,1,0.568,21,0.0,0,observed
1642,6,0.0,0,0.856,22,1.0,0,observed
1643,6,0.0,1,0.426,22,0.0,0,observed
1644,6,0.0,0,0.387,23,1.0,0,observed
1645,6,1.0,1,0.291,23,0.0,0,observed
1646,6,0.0,0,1.097,24,1.0,0,observed
1647,6,0.0,1,0.327,24,1.0,0,observed
1648,6,0.0,0,0.701,25,1.0,0,observed
1649,6,1.0,1,0.715,25,0.0,0,observed
1650,6,0.0,0,0.622,26,1.0,0,observed
1651,6,1.0,1,0.354,26,0.0,0,observed
1652,6,1.0,0,0.743,27,0.0,0,observed
1653,6,1.0,1,0.554,27,0.0,0,observed
1654,6,0.0,0,0.406,28,0.0,0,observed
1655,6,1.0,1,0.39,28,1.0,0,observed
1656,6,1.0,0,1.94,29,1.0,0,observed
1657,6,1.0,1,0.676,29,0.0,0,observed
1658,6,1.0,0,0.407,30,0.0,0,observed
1659,6,1.0,1,0.304,30,0.0,0,observed
1660,6,0.0,0,0.614,31,1.0,0,observed
1661,6,0.0,1,0.369,31,1.0,0,observed
1662,6,0.0,0,0.466,32,1.0,0,observed
1663,6,0.0,1,0.483,32,1.0,0,observed
1664,6,0.0,0,0.356,33,0.0,0,observed
1665,6,0.0,1,1.235,33,1.0,0,observed
1666,6,1.0,0,0.6,34,1.0,0,observed
1667,6,1.0,1,1.12,34,0.0,0,observed
1668,6,1.0,0,0.957,35,0.0,0,observed
1669,6,1.0,1,0.422,35,1.0,0,observed
1670,6,1.0,0,0.413,36,0.0,0,observed
1671,6,0.0,1,1.108,36,1.0,0,observed
1672,6,1.0,0,0.476,37,0.0,0,observed
1673,6,0.0,1,0.56,37,1.0,0,observed
1674,6,1.0,0,0.273,38,0.0,0,observed
1675,6,0.0,1,0.559,38,0.0,0,observed
1676,6,0.0,0,1.344,39,1.0,0,observed
1677,6,1.0,1,0.349,39,1.0,0,observed
1678,6,0.0,0,0.623,40,1.0,0,observed
1679,6,0.0,1,0.649,40,1.0,0,observed
1680,6,0.0,0,0.414,41,1.0,0,observed
1681,6,0.0,1,0.457,41,1.0,0,observed
1682,6,0.0,0,0.408,42,0.0,0,observed
1683,6,1.0,1,0.816,42,1.0,0,observed
1684,6,1.0,0,0.581,43,1.0,0,observed
1685,6,0.0,1,0.865,43,0.0,0,observed
1686,6,0.0,0,0.439,44,0.0,0,observed
1687,6,0.0,1,0.213,44,0.0,0,observed
1688,6,0.0,0,0.592,45,0.0,0,observed
1689,6,1.0,1,0.536,45,1.0,0,observed
1690,6,1.0,0,0.69,46,1.0,0,observed
1691,6,1.0,1,0.272,46,1.0,0,observed
1692,6,1.0,0,0.68,47,0.0,0,observed
1693,6,1.0,1,0.181,47,0.0,0,observed
1694,6,0.0,0,0.412,48,1.0,0,observed
1695,6,0.0,1,1.462,48,1.0,0,observed
1696,6,0.0,0,0.991,49,0.0,0,observed
1697,6,1.0,1,0.406,49,1.0,0,observed
1698,6,0.0,0,0.778,50,0.0,0,observed
1699,6,1.0,1,0.666,50,1.0,0,observed
1700,6,0.0,0,1.363,51,0.0,0,observed
1701,6,1.0,1,0.422,51,0.0,0,observed
1702,6,1.0,0,0.952,52,0.0,0,observed
1703,6,1.0,1,0.568,52,1.0,0,observed
1704,6,0.0,0,0.416,53,0.0,0,observed
1705,6,0.0,1,0.292,53,0.0,0,observed
1706,6,0.0,0,0.626,54,0.0,0,observed
1707,6,0.0,1,0.465,54,1.0,0,observed
1708,6,1.0,0,0.63,55,1.0,0,observed
1709,6,1.0,1,0.256,55,0.0,0,observed
1710,6,1.0,0,0.581,56,1.0,0,observed
1711,6,1.0,1,0.277,56,1.0,0,observed
1712,6,1.0,0,0.57,57,0.0,0,observed
1713,6,1.0,1,0.44,57,0.0,0,observed
1714,6,1.0,0,0.804,58,0.0,0,observed
1715,6,1.0,1,0.287,58,0.0,0,observed
1716,6,1.0,0,1.244,59,1.0,0,observed
1717,6,0.0,1,0.344,59,0.0,0,observed
1718,6,1.0,0,0.697,60,1.0,0,observed
1719,6,0.0,1,0.525,60,1.0,0,observed
1720,6,0.0,0,0.586,61,0.0,0,observed
1721,6,1.0,1,0.24,61,0.0,0,observed
1722,6,1.0,0,0.706,62,0.0,0,observed
1723,6,1.0,1,0.272,62,1.0,0,observed
1724,6,0.0,0,0.394,63,1.0,0,observed
1725,6,0.0,1,0.269,63,0.0,0,observed
1726,6,0.0,0,0.784,64,1.0,0,observed
1727,6,1.0,1,0.745,64,1.0,0,observed
1728,6,0.0,0,0.788,65,1.0,0,observed
1729,6,1.0,1,0.284,65,1.0,0,observed
1730,6,1.0,0,0.739,66,1.0,0,observed
1731,6,1.0,1,0.506,66,0.0,0,observed
1732,6,0.0,0,0.971,67,0.0,0,observed
1733,6,0.0,1,0.719,67,0.0,0,observed
1734,6,1.0,0,0.7,68,1.0,0,observed
1735,6,0.0,1,0.307,68,0.0,0,observed
1736,6,0.0,0,1.01,69,0.0,0,observed
1737,6,0.0,1,0.271,69,0.0,0,observed
1738,6,0.0,0,0.963,70,1.0,0,observed
1739,6,0.0,1,0.29,70,0.0,0,observed
1740,6,0.0,0,0.461,71,0.0,0,observed
1741,6,1.0,1,0.285,71,1.0,0,observed
1742,6,0.0,0,0.724,72,1.0,0,observed
1743,6,1.0,1,0.331,72,1.0,0,observed
1744,6,0.0,0,0.576,73,0.0,0,observed
1745,6,1.0,1,0.38,73,1.0,0,observed
1746,6,0.0,0,0.743,74,0.0,0,observed
1747,6,0.0,1,0.533,74,0.0,0,observed
1748,6,0.0,0,1.093,75,0.0,0,observed
1749,6,1.0,1,0.66,75,1.0,0,observed
1750,6,0.0,0,0.51,76,0.0,0,observed
1751,6,1.0,1,0.331,76,1.0,0,observed
1752,6,0.0,0,0.838,77,0.0,0,observed
1753,6,0.0,1,0.512,77,0.0,0,observed
1754,6,0.0,0,0.289,78,0.0,0,observed
1755,6,0.0,1,0.289,78,1.0,0,observed
1756,6,1.0,0,1.521,79,1.0,0,observed
1757,6,0.0,1,0.524,79,1.0,0,observed
1758,6,1.0,0,0.577,80,1.0,0,observed
1759,6,1.0,1,0.429,80,1.0,0,observed
1760,6,0.0,0,0.764,81,1.0,0,observed
1761,6,0.0,1,0.439,81,1.0,0,observed
1762,6,0.0,0,0.593,82,1.0,0,observed
1763,6,1.0,1,0.279,82,1.0,0,observed
1764,6,1.0,0,0.834,83,1.0,0,observed
1765,6,1.0,1,0.569,83,1.0,0,observed
1766,6,1.0,0,0.524,84,0.0,0,observed
1767,6,0.0,1,0.443,84,1.0,0,observed
1768,6,1.0,0,1.696,85,0.0,0,observed
1769,6,0.0,1,0.708,85,0.0,0,observed
1770,6,1.0,0,1.171,86,1.0,0,observed
1771,6,1.0,1,0.237,86,0.0,0,observed
1772,6,1.0,0,0.412,87,0.0,0,observed
1773,6,0.0,1,0.227,87,1.0,0,observed
1774,6,0.0,0,0.674,88,1.0,0,observed
1775,6,0.0,1,0.313,88,1.0,0,observed
1776,6,0.0,0,0.786,89,0.0,0,observed
1777,6,0.0,1,0.365,89,1.0,0,observed
1778,6,0.0,0,0.568,90,1.0,0,observed
1779,6,1.0,1,0.554,90,0.0,0,observed
1780,6,0.0,0,1.211,91,1.0,0,observed
1781,6,1.0,1,0.292,91,0.0,0,observed
1782,6,1.0,0,0.691,92,1.0,0,observed
1783,6,1.0,1,0.219,92,0.0,0,observed
1784,6,1.0,0,0.649,93,1.0,0,observed
1785,6,1.0,1,0.231,93,1.0,0,observed
1786,6,0.0,0,0.452,94,1.0,0,observed
1787,6,1.0,1,0.517,94,0.0,0,observed
1788,6,1.0,0,0.375,95,0.0,0,observed
1789,6,0.0,1,0.428,95,1.0,0,observed
1790,6,0.0,0,0.341,96,1.0,0,observed
1791,6,1.0,1,0.3,96,0.0,0,observed
1792,6,1.0,0,0.636,97,1.0,0,observed
1793,6,1.0,1,0.403,97,0.0,0,observed
1794,6,0.0,0,0.407,98,1.0,0,observed
1795,6,1.0,1,0.289,98,1.0,0,observed
1796,6,0.0,0,0.483,99,1.0,0,observed
1797,6,0.0,1,0.469,99,0.0,0,observed
1798,6,1.0,0,0.347,100,1.0,0,observed
1799,6,0.0,1,0.898,100,1.0,0,observed
1800,6,1.0,0,0.817,101,1.0,0,observed
1801,6,1.0,1,0.602,101,0.0,0,observed
1802,6,0.0,0,1.061,102,1.0,0,observed
1803,6,1.0,1,1.054,102,0.0,0,observed
1804,6,0.0,0,0.385,103,1.0,0,observed
1805,6,1.0,1,1.048,103,1.0,0,observed
1806,6,0.0,0,0.645,104,1.0,0,observed
1807,6,1.0,1,1.238,104,0.0,0,observed
1808,6,1.0,0,0.336,105,0.0,0,observed
1809,6,1.0,1,0.359,105,0.0,0,observed
1810,6,1.0,0,0.391,106,0.0,0,observed
1811,6,0.0,1,0.425,106,1.0,0,observed
1812,6,1.0,0,0.749,107,1.0,0,observed
1813,6,1.0,1,0.362,107,0.0,0,observed
1814,6,1.0,0,0.723,108,0.0,0,observed
1815,6,1.0,1,0.82,108,1.0,0,observed
1816,6,0.0,0,0.689,109,1.0,0,observed
1817,6,0.0,1,0.631,109,1.0,0,observed
1818,6,0.0,0,0.312,110,1.0,0,observed
1819,6,0.0,1,0.502,110,1.0,0,observed
1820,6,0.0,0,0.472,111,1.0,0,observed
1821,6,1.0,1,0.481,111,1.0,0,observed
1822,6,1.0,0,0.579,112,0.0,0,observed
1823,6,0.0,1,0.328,112,1.0,0,observed
1824,6,1.0,0,0.215,113,1.0,0,observed
1825,6,0.0,1,0.357,113,0.0,0,observed
1826,6,1.0,0,0.636,114,0.0,0,observed
1827,6,0.0,1,0.368,114,0.0,0,observed
1828,6,1.0,0,0.622,115,0.0,0,observed
1829,6,0.0,1,0.301,115,1.0,0,observed
1830,6,1.0,0,1.104,116,0.0,0,observed
1831,6,1.0,1,0.566,116,0.0,0,observed
1832,6,0.0,0,0.405,117,0.0,0,observed
1833,6,1.0,1,0.235,117,0.0,0,observed
1834,6,0.0,0,0.474,118,1.0,0,observed
1835,6,1.0,1,0.31,118,0.0,0,observed
1836,6,0.0,0,0.459,119,1.0,0,observed
1837,6,1.0,1,0.304,119,1.0,0,observed
1838,6,0.0,0,0.493,120,0.0,0,observed
1839,6,0.0,1,0.523,120,1.0,0,observed
1840,6,1.0,0,0.573,121,0.0,0,observed
1841,6,1.0,1,0.432,121,1.0,0,observed
1842,6,0.0,0,0.333,122,1.0,0,observed
1843,6,0.0,1,0.353,122,1.0,0,observed
1844,6,0.0,0,0.672,123,1.0,0,observed
1845,6,1.0,1,0.73,123,0.0,0,observed
1846,6,0.0,0,0.359,124,1.0,0,observed
1847,6,1.0,1,0.326,124,0.0,0,observed
1848,6,0.0,0,0.459,125,0.0,0,observed
1849,6,1.0,1,0.246,125,1.0,0,observed
1850,6,1.0,0,0.294,126,1.0,0,observed
1851,6,1.0,1,0.463,126,1.0,0,observed
1852,6,0.0,0,0.448,127,1.0,0,observed
1853,6,1.0,1,0.504,127,0.0,0,observed
1854,6,0.0,0,0.395,128,0.0,0,observed
1855,6,1.0,1,0.411,128,1.0,0,observed
1856,6,1.0,0,0.211,129,1.0,0,observed
1857,6,1.0,1,0.644,129,1.0,0,observed
1858,6,1.0,0,0.298,130,1.0,0,observed
1859,6,1.0,1,0.531,130,0.0,0,observed
1860,6,1.0,0,0.575,131,1.0,0,observed
1861,6,0.0,1,0.229,131,0.0,0,observed
1862,6,0.0,0,0.689,132,1.0,0,observed
1863,6,1.0,1,0.221,132,0.0,0,observed
1864,6,1.0,0,0.317,133,1.0,0,observed
1865,6,1.0,1,0.269,133,0.0,0,observed
1866,6,1.0,0,0.423,134,1.0,0,observed
1867,6,0.0,1,0.217,134,1.0,0,observed
1868,6,1.0,0,0.456,135,1.0,0,observed
1869,6,0.0,1,0.461,135,0.0,0,observed
1870,6,1.0,0,0.649,136,1.0,0,observed
1871,6,0.0,1,0.289,136,0.0,0,observed
1872,6,0.0,0,1.044,137,0.0,0,observed
1873,6,0.0,1,0.296,137,0.0,0,observed
1874,6,1.0,0,0.551,138,1.0,0,observed
1875,6,1.0,1,0.515,138,1.0,0,observed
1876,6,1.0,0,0.527,139,1.0,0,observed
1877,6,1.0,1,0.428,139,0.0,0,observed
1878,6,1.0,0,0.551,140,1.0,0,observed
1879,6,0.0,1,0.257,140,0.0,0,observed
1880,6,1.0,0,0.472,141,0.0,0,observed
1881,6,1.0,1,0.271,141,1.0,0,observed
1882,6,0.0,0,0.44,142,0.0,0,observed
1883,6,0.0,1,0.957,142,0.0,0,observed
1884,6,0.0,0,0.452,143,0.0,0,observed
1885,6,0.0,1,0.4,143,1.0,0,observed
1886,6,0.0,0,0.544,144,1.0,0,observed
1887,6,1.0,1,0.599,144,1.0,0,observed
1888,6,0.0,0,0.372,145,1.0,0,observed
1889,6,0.0,1,0.733,145,1.0,0,observed
1890,6,1.0,0,0.575,146,0.0,0,observed
1891,6,0.0,1,0.625,146,0.0,0,observed
1892,6,1.0,0,0.621,147,1.0,0,observed
1893,6,0.0,1,0.211,147,0.0,0,observed
1894,6,1.0,0,0.422,148,1.0,0,observed
1895,6,0.0,1,0.348,148,1.0,0,observed
1896,6,1.0,0,0.467,149,0.0,0,observed
1897,6,0.0,1,0.339,149,0.0,0,observed
1898,6,0.0,0,0.319,150,0.0,0,observed
1899,6,0.0,1,0.315,150,0.0,0,observed
1900,6,0.0,0,0.257,151,0.0,0,observed
1901,6,0.0,1,0.266,151,0.0,0,observed
1902,6,0.0,0,0.301,152,0.0,0,observed
1903,6,1.0,1,0.297,152,1.0,0,observed
1904,6,1.0,0,0.274,153,1.0,0,observed
1905,6,0.0,1,0.385,153,0.0,0,observed
1906,6,1.0,0,0.374,154,0.0,0,observed
1907,6,0.0,1,0.451,154,0.0,0,observed
1908,6,1.0,0,0.73,155,1.0,0,observed
1909,6,0.0,1,0.528,155,0.0,0,observed
1910,6,1.0,0,0.847,156,1.0,0,observed
1911,6,0.0,1,0.347,156,0.0,0,observed
1912,6,0.0,0,0.78,157,0.0,0,observed
1913,6,1.0,1,0.448,157,1.0,0,observed
1914,6,0.0,0,0.413,158,0.0,0,observed
1915,6,1.0,1,0.391,158,1.0,0,observed
1916,6,1.0,0,0.364,159,1.0,0,observed
1917,6,1.0,1,0.539,159,1.0,0,observed
1918,6,1.0,0,0.541,160,1.0,0,observed
1919,6,1.0,1,0.824,160,1.0,0,observed
1920,7,0.0,0,2.367,1,1.0,0,observed
1921,7,1.0,1,1.378,1,0.0,0,observed
1922,7,1.0,0,0.742,2,0.0,0,observed
1923,7,0.0,1,0.848,2,1.0,0,observed
1924,7,0.0,0,1.161,3,1.0,0,observed
1925,7,0.0,1,0.71,3,0.0,0,observed
1926,7,1.0,0,0.943,4,0.0,0,observed
1927,7,1.0,1,0.835,4,0.0,0,observed
1928,7,0.0,0,0.428,5,0.0,0,observed
1929,7,0.0,1,0.421,5,0.0,0,observed
1930,7,1.0,0,1.034,6,0.0,0,observed
1931,7,1.0,1,0.214,6,0.0,0,observed
1932,7,1.0,0,1.94,7,1.0,0,observed
1933,7,0.0,1,0.967,7,0.0,0,observed
1934,7,0.0,0,1.3,8,1.0,0,observed
1935,7,1.0,1,1.012,8,0.0,0,observed
1936,7,0.0,0,0.644,9,1.0,0,observed
1937,7,1.0,1,0.287,9,0.0,0,observed
1938,7,1.0,0,0.345,10,0.0,0,observed
1939,7,0.0,1,1.25,10,1.0,0,observed
1940,7,0.0,0,1.013,11,1.0,0,observed
1941,7,0.0,1,0.287,11,1.0,0,observed
1942,7,1.0,0,1.023,12,0.0,0,observed
1943,7,0.0,1,0.231,12,1.0,0,observed
1944,7,0.0,0,0.527,13,0.0,0,observed
1945,7,0.0,1,0.301,13,0.0,0,observed
1946,7,0.0,0,0.931,14,0.0,0,observed
1947,7,0.0,1,0.55,14,0.0,0,observed
1948,7,1.0,0,0.741,15,0.0,0,observed
1949,7,1.0,1,0.396,15,0.0,0,observed
1950,7,1.0,0,0.66,16,0.0,0,observed
1951,7,0.0,1,1.122,16,1.0,0,observed
1952,7,0.0,0,1.682,17,0.0,0,observed
1953,7,1.0,1,0.591,17,0.0,0,observed
1954,7,0.0,0,0.787,18,0.0,0,observed
1955,7,1.0,1,1.024,18,1.0,0,observed
1956,7,1.0,0,0.433,19,0.0,0,observed
1957,7,0.0,1,1.047,19,1.0,0,observed
1958,7,0.0,0,0.236,20,0.0,0,observed
1959,7,1.0,1,1.034,20,1.0,0,observed
1960,7,1.0,0,0.778,21,0.0,0,observed
1961,7,0.0,1,0.856,21,1.0,0,observed
1962,7,0.0,0,1.016,22,1.0,0,observed
1963,7,1.0,1,1.241,22,1.0,0,observed
1964,7,1.0,0,0.76,23,1.0,0,observed
1965,7,0.0,1,1.093,23,1.0,0,observed
1966,7,1.0,0,0.819,24,0.0,0,observed
1967,7,1.0,1,1.297,24,0.0,0,observed
1968,7,1.0,0,1.223,25,1.0,0,observed
1969,7,0.0,1,1.342,25,1.0,0,observed
1970,7,0.0,0,1.017,26,1.0,0,observed
1971,7,1.0,1,0.984,26,0.0,0,observed
1972,7,0.0,0,0.321,27,1.0,0,observed
1973,7,0.0,1,1.051,27,0.0,0,observed
1974,7,1.0,0,0.295,28,0.0,0,observed
1975,7,0.0,1,0.883,28,1.0,0,observed
1976,7,1.0,0,0.7,29,0.0,0,observed
1977,7,1.0,1,1.105,29,1.0,0,observed
1978,7,0.0,0,0.73,30,1.0,0,observed
1979,7,1.0,1,1.107,30,1.0,0,observed
1980,7,0.0,0,0.343,31,1.0,0,observed
1981,7,1.0,1,1.414,31,0.0,0,observed
1982,7,1.0,0,0.566,32,0.0,0,observed
1983,7,1.0,1,0.419,32,0.0,0,observed
1984,7,1.0,0,0.917,33,1.0,0,observed
1985,7,0.0,1,1.944,33,1.0,0,observed
1986,7,0.0,0,0.35,34,1.0,0,observed
1987,7,1.0,1,1.0,34,0.0,0,observed
1988,7,0.0,0,0.687,35,1.0,0,observed
1989,7,0.0,1,0.647,35,0.0,0,observed
1990,7,1.0,0,0.697,36,0.0,0,observed
1991,7,1.0,1,0.262,36,0.0,0,observed
1992,7,0.0,0,1.057,37,1.0,0,observed
1993,7,0.0,1,0.484,37,1.0,0,observed
1994,7,1.0,0,1.285,38,0.0,0,observed
1995,7,0.0,1,0.899,38,1.0,0,observed
1996,7,0.0,0,1.492,39,1.0,0,observed
1997,7,0.0,1,0.965,39,1.0,0,observed
1998,7,1.0,0,1.259,40,0.0,0,observed
1999,7,0.0,1,0.748,40,1.0,0,observed
2000,7,0.0,0,1.475,41,1.0,0,observed
2001,7,0.0,1,0.393,41,1.0,0,observed
2002,7,1.0,0,1.531,42,0.0,0,observed
2003,7,1.0,1,0.432,42,0.0,0,observed
2004,7,1.0,0,1.372,43,0.0,0,observed
2005,7,1.0,1,0.4,43,0.0,0,observed
2006,7,0.0,0,0.695,44,0.0,0,observed
2007,7,0.0,1,0.487,44,0.0,0,observed
2008,7,0.0,0,0.283,45,1.0,0,observed
2009,7,1.0,1,0.374,45,0.0,0,observed
2010,7,0.0,0,0.436,46,1.0,0,observed
2011,7,1.0,1,0.965,46,0.0,0,observed
2012,7,1.0,0,0.397,47,0.0,0,observed
2013,7,0.0,1,0.166,47,0.0,0,observed
2014,7,1.0,0,0.876,48,1.0,0,observed
2015,7,1.0,1,0.774,48,1.0,0,observed
2016,7,0.0,0,0.455,49,0.0,0,observed
2017,7,0.0,1,1.095,49,0.0,0,observed
2018,7,0.0,0,0.945,50,0.0,0,observed
2019,7,1.0,1,0.903,50,1.0,0,observed
2020,7,0.0,0,0.35,51,1.0,0,observed
2021,7,1.0,1,0.578,51,0.0,0,observed
2022,7,0.0,0,0.88,52,1.0,0,observed
2023,7,0.0,1,0.312,52,0.0,0,observed
2024,7,0.0,0,0.449,53,0.0,0,observed
2025,7,0.0,1,0.876,53,1.0,0,observed
2026,7,1.0,0,0.609,54,0.0,0,observed
2027,7,0.0,1,0.546,54,0.0,0,observed
2028,7,0.0,0,1.043,55,1.0,0,observed
2029,7,0.0,1,0.647,55,1.0,0,observed
2030,7,1.0,0,1.926,56,1.0,0,observed
2031,7,0.0,1,0.959,56,0.0,0,observed
2032,7,1.0,0,0.274,57,1.0,0,observed
2033,7,1.0,1,0.714,57,1.0,0,observed
2034,7,0.0,0,0.598,58,0.0,0,observed
2035,7,1.0,1,0.85,58,0.0,0,observed
2036,7,0.0,0,0.35,59,0.0,0,observed
2037,7,0.0,1,0.385,59,1.0,0,observed
2038,7,0.0,0,0.521,60,0.0,0,observed
2039,7,0.0,1,0.384,60,1.0,0,observed
2040,7,0.0,0,0.365,61,0.0,0,observed
2041,7,0.0,1,0.516,61,0.0,0,observed
2042,7,1.0,0,0.277,62,1.0,0,observed
2043,7,0.0,1,0.485,62,1.0,0,observed
2044,7,1.0,0,0.679,63,1.0,0,observed
2045,7,0.0,1,0.24,63,0.0,0,observed
2046,7,1.0,0,0.849,64,1.0,0,observed
2047,7,1.0,1,0.463,64,1.0,0,observed
2048,7,0.0,0,0.448,65,1.0,0,observed
2049,7,0.0,1,0.32,65,0.0,0,observed
2050,7,1.0,0,0.345,66,1.0,0,observed
2051,7,0.0,1,0.52,66,0.0,0,observed
2052,7,0.0,0,1.058,67,0.0,0,observed
2053,7,1.0,1,0.826,67,1.0,0,observed
2054,7,0.0,0,1.011,68,0.0,0,observed
2055,7,0.0,1,1.128,68,0.0,0,observed
2056,7,1.0,0,0.482,69,1.0,0,observed
2057,7,1.0,1,0.402,69,1.0,0,observed
2058,7,0.0,0,1.267,70,0.0,0,observed
2059,7,1.0,1,0.577,70,1.0,0,observed
2060,7,1.0,0,0.719,71,1.0,0,observed
2061,7,0.0,1,1.96,71,0.0,0,observed
2062,7,0.0,0,1.464,72,0.0,0,observed
2063,7,1.0,1,0.389,72,1.0,0,observed
2064,7,1.0,0,0.956,73,1.0,0,observed
2065,7,1.0,1,1.775,73,1.0,0,observed
2066,7,1.0,0,0.292,74,1.0,0,observed
2067,7,0.0,1,1.343,74,0.0,0,observed
2068,7,0.0,0,0.5,75,0.0,0,observed
2069,7,0.0,1,1.138,75,0.0,0,observed
2070,7,1.0,0,0.268,76,1.0,0,observed
2071,7,0.0,1,1.151,76,0.0,0,observed
2072,7,0.0,0,1.244,77,0.0,0,observed
2073,7,0.0,1,0.944,77,0.0,0,observed
2074,7,0.0,0,0.281,78,0.0,0,observed
2075,7,1.0,1,0.443,78,1.0,0,observed
2076,7,1.0,0,0.347,79,0.0,0,observed
2077,7,1.0,1,0.266,79,1.0,0,observed
2078,7,1.0,0,0.626,80,1.0,0,observed
2079,7,1.0,1,0.243,80,1.0,0,observed
2080,7,1.0,0,0.72,81,1.0,0,observed
2081,7,1.0,1,0.21,81,0.0,0,observed
2082,7,1.0,0,0.793,82,1.0,0,observed
2083,7,0.0,1,0.512,82,1.0,0,observed
2084,7,0.0,0,0.45,83,1.0,0,observed
2085,7,0.0,1,0.538,83,1.0,0,observed
2086,7,1.0,0,0.759,84,1.0,0,observed
2087,7,1.0,1,0.745,84,0.0,0,observed
2088,7,0.0,0,0.8,85,1.0,0,observed
2089,7,0.0,1,0.591,85,1.0,0,observed
2090,7,1.0,0,1.144,86,0.0,0,observed
2091,7,0.0,1,0.814,86,0.0,0,observed
2092,7,1.0,0,0.982,87,0.0,0,observed
2093,7,1.0,1,1.186,87,1.0,0,observed
2094,7,1.0,0,1.039,88,1.0,0,observed
2095,7,0.0,1,1.192,88,0.0,0,observed
2096,7,0.0,0,0.697,89,0.0,0,observed
2097,7,0.0,1,0.359,89,1.0,0,observed
2098,7,1.0,0,0.873,90,0.0,0,observed
2099,7,1.0,1,0.526,90,1.0,0,observed
2100,7,0.0,0,0.837,91,1.0,0,observed
2101,7,1.0,1,0.846,91,0.0,0,observed
2102,7,1.0,0,0.877,92,0.0,0,observed
2103,7,1.0,1,0.271,92,1.0,0,observed
2104,7,1.0,0,1.221,93,1.0,0,observed
2105,7,0.0,1,0.811,93,1.0,0,observed
2106,7,0.0,0,1.36,94,0.0,0,observed
2107,7,1.0,1,0.284,94,0.0,0,observed
2108,7,0.0,0,1.304,95,0.0,0,observed
2109,7,0.0,1,0.9,95,0.0,0,observed
2110,7,1.0,0,0.223,96,0.0,0,observed
2111,7,1.0,1,0.277,96,1.0,0,observed
2112,7,0.0,0,0.298,97,1.0,0,observed
2113,7,1.0,1,0.328,97,0.0,0,observed
2114,7,0.0,0,1.05,98,0.0,0,observed
2115,7,1.0,1,0.885,98,1.0,0,observed
2116,7,1.0,0,1.46,99,1.0,0,observed
2117,7,1.0,1,0.922,99,0.0,0,observed
2118,7,1.0,0,0.393,100,1.0,0,observed
2119,7,1.0,1,0.698,100,1.0,0,observed
2120,7,1.0,0,0.464,101,0.0,0,observed
2121,7,1.0,1,0.494,101,0.0,0,observed
2122,7,0.0,0,0.395,102,1.0,0,observed
2123,7,0.0,1,0.371,102,1.0,0,observed
2124,7,1.0,0,1.173,103,0.0,0,observed
2125,7,0.0,1,0.665,103,0.0,0,observed
2126,7,0.0,0,0.446,104,1.0,0,observed
2127,7,0.0,1,1.036,104,1.0,0,observed
2128,7,0.0,0,1.041,105,1.0,0,observed
2129,7,1.0,1,1.401,105,0.0,0,observed
2130,7,0.0,0,0.868,106,1.0,0,observed
2131,7,0.0,1,1.181,106,1.0,0,observed
2132,7,1.0,0,0.744,107,0.0,0,observed
2133,7,0.0,1,0.707,107,0.0,0,observed
2134,7,1.0,0,1.462,108,0.0,0,observed
2135,7,1.0,1,0.691,108,1.0,0,observed
2136,7,1.0,0,0.897,109,0.0,0,observed
2137,7,0.0,1,1.176,109,1.0,0,observed
2138,7,1.0,0,0.338,110,0.0,0,observed
2139,7,0.0,1,1.277,110,1.0,0,observed
2140,7,1.0,0,0.911,111,1.0,0,observed
2141,7,0.0,1,1.064,111,1.0,0,observed
2142,7,1.0,0,0.254,112,0.0,0,observed
2143,7,0.0,1,0.307,112,1.0,0,observed
2144,7,0.0,0,0.981,113,1.0,0,observed
2145,7,1.0,1,0.414,113,0.0,0,observed
2146,7,0.0,0,0.775,114,1.0,0,observed
2147,7,1.0,1,0.702,114,0.0,0,observed
2148,7,1.0,0,0.709,115,0.0,0,observed
2149,7,0.0,1,0.381,115,1.0,0,observed
2150,7,1.0,0,1.085,116,0.0,0,observed
2151,7,0.0,1,0.275,116,1.0,0,observed
2152,7,0.0,0,1.302,117,1.0,0,observed
2153,7,1.0,1,0.356,117,0.0,0,observed
2154,7,1.0,0,1.111,118,0.0,0,observed
2155,7,0.0,1,0.457,118,1.0,0,observed
2156,7,1.0,0,1.061,119,0.0,0,observed
2157,7,0.0,1,0.851,119,1.0,0,observed
2158,7,0.0,0,0.88,120,1.0,0,observed
2159,7,0.0,1,0.602,120,1.0,0,observed
2160,7,1.0,0,0.75,121,0.0,0,observed
2161,7,0.0,1,0.269,121,0.0,0,observed
2162,7,0.0,0,0.893,122,1.0,0,observed
2163,7,0.0,1,0.382,122,1.0,0,observed
2164,7,0.0,0,0.695,123,1.0,0,observed
2165,7,0.0,1,0.363,123,0.0,0,observed
2166,7,1.0,0,1.885,124,1.0,0,observed
2167,7,0.0,1,0.348,124,1.0,0,observed
2168,7,1.0,0,1.408,125,0.0,0,observed
2169,7,0.0,1,0.429,125,0.0,0,observed
2170,7,0.0,0,1.234,126,0.0,0,observed
2171,7,0.0,1,0.255,126,0.0,0,observed
2172,7,1.0,0,1.158,127,0.0,0,observed
2173,7,1.0,1,0.326,127,1.0,0,observed
2174,7,0.0,0,0.592,128,0.0,0,observed
2175,7,1.0,1,0.254,128,1.0,0,observed
2176,7,0.0,0,0.955,129,0.0,0,observed
2177,7,1.0,1,0.595,129,1.0,0,observed
2178,7,0.0,0,1.388,130,0.0,0,observed
2179,7,0.0,1,0.857,130,0.0,0,observed
2180,7,0.0,0,0.611,131,0.0,0,observed
2181,7,0.0,1,0.269,131,1.0,0,observed
2182,7,1.0,0,0.377,132,1.0,0,observed
2183,7,1.0,1,0.512,132,0.0,0,observed
2184,7,1.0,0,0.29,133,1.0,0,observed
2185,7,0.0,1,1.225,133,0.0,0,observed
2186,7,1.0,0,0.385,134,1.0,0,observed
2187,7,1.0,1,0.21,134,0.0,0,observed
2188,7,1.0,0,0.514,135,0.0,0,observed
2189,7,0.0,1,0.532,135,1.0,0,observed
2190,7,0.0,0,0.303,136,1.0,0,observed
2191,7,0.0,1,0.367,136,0.0,0,observed
2192,7,1.0,0,0.541,137,1.0,0,observed
2193,7,0.0,1,0.533,137,0.0,0,observed
2194,7,0.0,0,0.567,138,0.0,0,observed
2195,7,1.0,1,0.226,138,0.0,0,observed
2196,7,1.0,0,0.306,139,1.0,0,observed
2197,7,1.0,1,0.321,139,1.0,0,observed
2198,7,0.0,0,0.594,140,1.0,0,observed
2199,7,0.0,1,0.299,140,0.0,0,observed
2200,7,0.0,0,0.285,141,1.0,0,observed
2201,7,0.0,1,0.359,141,1.0,0,observed
2202,7,0.0,0,0.463,142,0.0,0,observed
2203,7,0.0,1,0.823,142,0.0,0,observed
2204,7,1.0,0,0.304,143,1.0,0,observed
2205,7,0.0,1,0.299,143,0.0,0,observed
2206,7,1.0,0,0.725,144,1.0,0,observed
2207,7,1.0,1,0.239,144,1.0,0,observed
2208,7,0.0,0,0.519,145,0.0,0,observed
2209,7,1.0,1,0.236,145,1.0,0,observed
2210,7,1.0,0,0.926,146,1.0,0,observed
2211,7,0.0,1,0.565,146,0.0,0,observed
2212,7,0.0,0,0.23,147,0.0,0,observed
2213,7,1.0,1,0.267,147,1.0,0,observed
2214,7,0.0,0,0.324,148,0.0,0,observed
2215,7,1.0,1,0.393,148,0.0,0,observed
2216,7,1.0,0,0.327,149,1.0,0,observed
2217,7,1.0,1,0.232,149,1.0,0,observed
2218,7,0.0,0,0.891,150,0.0,0,observed
2219,7,0.0,1,0.685,150,0.0,0,observed
2220,7,1.0,0,0.264,151,0.0,0,observed
2221,7,1.0,1,0.46,151,0.0,0,observed
2222,7,0.0,0,0.69,152,1.0,0,observed
2223,7,0.0,1,0.25,152,1.0,0,observed
2224,7,0.0,0,0.383,153,0.0,0,observed
2225,7,0.0,1,0.255,153,0.0,0,observed
2226,7,1.0,0,0.352,154,1.0,0,observed
2227,7,1.0,1,0.406,154,1.0,0,observed
2228,7,1.0,0,0.368,155,1.0,0,observed
2229,7,1.0,1,0.256,155,1.0,0,observed
2230,7,1.0,0,0.39,156,1.0,0,observed
2231,7,1.0,1,0.464,156,1.0,0,observed
2232,7,0.0,0,0.508,157,0.0,0,observed
2233,7,1.0,1,0.445,157,1.0,0,observed
2234,7,1.0,0,0.287,158,1.0,0,observed
2235,7,0.0,1,0.316,158,0.0,0,observed
2236,7,1.0,0,0.372,159,1.0,0,observed
2237,7,1.0,1,0.41,159,1.0,0,observed
2238,7,0.0,0,0.978,160,1.0,0,observed
2239,7,1.0,1,0.971,160,0.0,0,observed
2240,8,1.0,0,0.845,1,0.0,0,observed
2241,8,1.0,1,0.968,1,0.0,0,observed
2242,8,0.0,0,2.366,2,1.0,0,observed
2243,8,0.0,1,1.436,2,0.0,0,observed
2244,8,0.0,0,2.494,3,1.0,0,observed
2245,8,1.0,1,1.827,3,0.0,0,observed
2246,8,0.0,0,1.204,4,1.0,0,observed
2247,8,0.0,1,0.773,4,0.0,0,observed
2248,8,0.0,0,1.049,5,0.0,0,observed
2249,8,0.0,1,1.244,5,1.0,0,observed
2250,8,1.0,0,1.169,6,1.0,0,observed
2251,8,0.0,1,0.846,6,1.0,0,observed
2252,8,1.0,0,1.116,7,0.0,0,observed
2253,8,0.0,1,0.96,7,0.0,0,observed
2254,8,0.0,0,2.026,8,1.0,0,observed
2255,8,1.0,1,1.209,8,1.0,0,observed
2256,8,0.0,0,1.354,9,1.0,0,observed
2257,8,0.0,1,2.009,9,0.0,0,observed
2258,8,1.0,0,0.751,10,1.0,0,observed
2259,8,1.0,1,1.609,10,1.0,0,observed
2260,8,1.0,0,0.994,11,1.0,0,observed
2261,8,1.0,1,1.123,11,1.0,0,observed
2262,8,0.0,0,0.856,12,1.0,0,observed
2263,8,1.0,1,2.031,12,0.0,0,observed
2264,8,0.0,0,0.688,13,1.0,0,observed
2265,8,0.0,1,2.014,13,1.0,0,observed
2266,8,1.0,0,0.715,14,0.0,0,observed
2267,8,0.0,1,0.374,14,1.0,0,observed
2268,8,0.0,0,0.733,15,1.0,0,observed
2269,8,1.0,1,1.185,15,1.0,0,observed
2270,8,0.0,0,0.828,16,1.0,0,observed
2271,8,1.0,1,0.674,16,0.0,0,observed
2272,8,0.0,0,1.394,17,1.0,0,observed
2273,8,1.0,1,1.742,17,0.0,0,observed
2274,8,0.0,0,0.972,18,1.0,0,observed
2275,8,0.0,1,0.335,18,0.0,0,observed
2276,8,0.0,0,0.76,19,0.0,0,observed
2277,8,1.0,1,0.406,19,0.0,0,observed
2278,8,1.0,0,0.795,20,0.0,0,observed
2279,8,1.0,1,0.779,20,0.0,0,observed
2280,8,0.0,0,0.59,21,1.0,0,observed
2281,8,0.0,1,0.794,21,0.0,0,observed
2282,8,0.0,0,0.802,22,0.0,0,observed
2283,8,1.0,1,0.704,22,0.0,0,observed
2284,8,1.0,0,1.151,23,0.0,0,observed
2285,8,1.0,1,0.934,23,1.0,0,observed
2286,8,0.0,0,1.704,24,1.0,0,observed
2287,8,0.0,1,1.489,24,1.0,0,observed
2288,8,0.0,0,0.393,25,1.0,0,observed
2289,8,1.0,1,0.513,25,0.0,0,observed
2290,8,0.0,0,1.319,26,0.0,0,observed
2291,8,0.0,1,0.773,26,1.0,0,observed
2292,8,0.0,0,1.133,27,0.0,0,observed
2293,8,0.0,1,0.677,27,1.0,0,observed
2294,8,1.0,0,0.87,28,1.0,0,observed
2295,8,0.0,1,1.563,28,1.0,0,observed
2296,8,1.0,0,0.595,29,0.0,0,observed
2297,8,0.0,1,1.068,29,1.0,0,observed
2298,8,1.0,0,0.861,30,1.0,0,observed
2299,8,1.0,1,0.64,30,0.0,0,observed
2300,8,0.0,0,0.727,31,1.0,0,observed
2301,8,0.0,1,0.322,31,1.0,0,observed
2302,8,0.0,0,0.758,32,1.0,0,observed
2303,8,0.0,1,1.089,32,1.0,0,observed
2304,8,0.0,0,1.242,33,0.0,0,observed
2305,8,0.0,1,2.322,33,1.0,0,observed
2306,8,1.0,0,2.402,34,0.0,0,observed
2307,8,0.0,1,0.766,34,1.0,0,observed
2308,8,1.0,0,1.432,35,0.0,0,observed
2309,8,0.0,1,0.932,35,1.0,0,observed
2310,8,1.0,0,1.382,36,0.0,0,observed
2311,8,0.0,1,0.475,36,1.0,0,observed
2312,8,1.0,0,2.056,37,0.0,0,observed
2313,8,0.0,1,0.643,37,1.0,0,observed
2314,8,1.0,0,0.366,38,1.0,0,observed
2315,8,0.0,1,0.612,38,1.0,0,observed
2316,8,0.0,0,0.468,39,1.0,0,observed
2317,8,0.0,1,0.529,39,1.0,0,observed
2318,8,1.0,0,0.842,40,0.0,0,observed
2319,8,0.0,1,0.437,40,1.0,0,observed
2320,8,0.0,0,0.444,41,1.0,0,observed
2321,8,0.0,1,0.576,41,0.0,0,observed
2322,8,0.0,0,0.353,42,0.0,0,observed
2323,8,1.0,1,0.527,42,0.0,0,observed
2324,8,1.0,0,0.768,43,1.0,0,observed
2325,8,1.0,1,1.058,43,1.0,0,observed
2326,8,0.0,0,0.311,44,1.0,0,observed
2327,8,1.0,1,0.455,44,1.0,0,observed
2328,8,1.0,0,0.546,45,0.0,0,observed
2329,8,1.0,1,0.455,45,0.0,0,observed
2330,8,0.0,0,1.072,46,1.0,0,observed
2331,8,0.0,1,0.395,46,1.0,0,observed
2332,8,0.0,0,0.356,47,0.0,0,observed
2333,8,0.0,1,0.373,47,0.0,0,observed
2334,8,0.0,0,1.651,48,1.0,0,observed
2335,8,1.0,1,0.58,48,1.0,0,observed
2336,8,0.0,0,0.426,49,1.0,0,observed
2337,8,0.0,1,0.354,49,0.0,0,observed
2338,8,1.0,0,0.553,50,1.0,0,observed
2339,8,1.0,1,0.479,50,1.0,0,observed
2340,8,1.0,0,0.53,51,0.0,0,observed
2341,8,1.0,1,0.396,51,0.0,0,observed
2342,8,0.0,0,1.553,52,0.0,0,observed
2343,8,0.0,1,0.948,52,0.0,0,observed
2344,8,0.0,0,0.479,53,1.0,0,observed
2345,8,1.0,1,0.321,53,1.0,0,observed
2346,8,0.0,0,0.307,54,0.0,0,observed
2347,8,1.0,1,0.56,54,1.0,0,observed
2348,8,0.0,0,2.017,55,0.0,0,observed
2349,8,1.0,1,0.651,55,0.0,0,observed
2350,8,0.0,0,1.15,56,0.0,0,observed
2351,8,0.0,1,1.697,56,0.0,0,observed
2352,8,0.0,0,0.658,57,0.0,0,observed
2353,8,0.0,1,1.183,57,0.0,0,observed
2354,8,0.0,0,0.814,58,0.0,0,observed
2355,8,0.0,1,0.391,58,0.0,0,observed
2356,8,0.0,0,0.783,59,0.0,0,observed
2357,8,0.0,1,0.587,59,1.0,0,observed
2358,8,0.0,0,0.316,60,0.0,0,observed
2359,8,0.0,1,0.723,60,0.0,0,observed
2360,8,0.0,0,1.104,61,1.0,0,observed
2361,8,0.0,1,0.691,61,0.0,0,observed
2362,8,0.0,0,1.438,62,0.0,0,observed
2363,8,0.0,1,0.776,62,0.0,0,observed
2364,8,0.0,0,0.515,63,0.0,0,observed
2365,8,0.0,1,0.817,63,1.0,0,observed
2366,8,0.0,0,0.941,64,0.0,0,observed
2367,8,0.0,1,0.604,64,1.0,0,observed
2368,8,1.0,0,1.249,65,0.0,0,observed
2369,8,0.0,1,0.452,65,1.0,0,observed
2370,8,1.0,0,0.283,66,1.0,0,observed
2371,8,0.0,1,0.317,66,0.0,0,observed
2372,8,1.0,0,0.283,67,1.0,0,observed
2373,8,1.0,1,0.96,67,1.0,0,observed
2374,8,0.0,0,1.225,68,1.0,0,observed
2375,8,1.0,1,1.194,68,1.0,0,observed
2376,8,0.0,0,0.647,69,0.0,0,observed
2377,8,1.0,1,0.425,69,1.0,0,observed
2378,8,0.0,0,0.786,70,0.0,0,observed
2379,8,1.0,1,0.754,70,1.0,0,observed
2380,8,0.0,0,0.707,71,0.0,0,observed
2381,8,1.0,1,0.536,71,1.0,0,observed
2382,8,1.0,0,0.626,72,1.0,0,observed
2383,8,1.0,1,0.687,72,1.0,0,observed
2384,8,1.0,0,0.54,73,1.0,0,observed
2385,8,1.0,1,0.397,73,1.0,0,observed
2386,8,0.0,0,0.978,74,0.0,0,observed
2387,8,1.0,1,0.727,74,1.0,0,observed
2388,8,1.0,0,1.121,75,1.0,0,observed
2389,8,1.0,1,0.458,75,1.0,0,observed
2390,8,0.0,0,2.499,76,0.0,0,observed
2391,8,1.0,1,0.457,76,0.0,0,observed
2392,8,0.0,0,0.732,77,0.0,0,observed
2393,8,0.0,1,0.775,77,1.0,0,observed
2394,8,0.0,0,0.811,78,0.0,0,observed
2395,8,0.0,1,0.458,78,1.0,0,observed
2396,8,1.0,0,0.521,79,1.0,0,observed
2397,8,0.0,1,0.502,79,0.0,0,observed
2398,8,1.0,0,1.211,80,0.0,0,observed
2399,8,0.0,1,1.601,80,0.0,0,observed
2400,8,0.0,0,0.48,81,0.0,0,observed
2401,8,1.0,1,0.587,81,1.0,0,observed
2402,8,0.0,0,0.43,82,1.0,0,observed
2403,8,1.0,1,1.247,82,1.0,0,observed
2404,8,0.0,0,0.329,83,0.0,0,observed
2405,8,1.0,1,0.757,83,0.0,0,observed
2406,8,0.0,0,0.158,84,0.0,0,observed
2407,8,0.0,1,0.525,84,1.0,0,observed
2408,8,1.0,0,1.869,85,0.0,0,observed
2409,8,0.0,1,0.529,85,1.0,0,observed
2410,8,0.0,0,0.951,86,1.0,0,observed
2411,8,1.0,1,0.823,86,1.0,0,observed
2412,8,0.0,0,0.48,87,0.0,0,observed
2413,8,1.0,1,0.403,87,0.0,0,observed
2414,8,0.0,0,1.831,88,1.0,0,observed
2415,8,0.0,1,0.391,88,1.0,0,observed
2416,8,1.0,0,0.813,89,1.0,0,observed
2417,8,0.0,1,0.389,89,1.0,0,observed
2418,8,0.0,0,0.397,90,1.0,0,observed
2419,8,1.0,1,0.936,90,1.0,0,observed
2420,8,1.0,0,0.866,91,1.0,0,observed
2421,8,1.0,1,0.694,91,1.0,0,observed
2422,8,1.0,0,1.13,92,1.0,0,observed
2423,8,0.0,1,0.539,92,0.0,0,observed
2424,8,0.0,0,1.07,93,0.0,0,observed
2425,8,1.0,1,0.421,93,1.0,0,observed
2426,8,1.0,0,0.958,94,1.0,0,observed
2427,8,1.0,1,0.692,94,0.0,0,observed
2428,8,1.0,0,0.515,95,0.0,0,observed
2429,8,0.0,1,0.451,95,1.0,0,observed
2430,8,1.0,0,1.176,96,1.0,0,observed
2431,8,1.0,1,0.523,96,0.0,0,observed
2432,8,0.0,0,0.864,97,1.0,0,observed
2433,8,0.0,1,0.43,97,1.0,0,observed
2434,8,1.0,0,1.525,98,1.0,0,observed
2435,8,0.0,1,0.693,98,0.0,0,observed
2436,8,1.0,0,0.997,99,0.0,0,observed
2437,8,0.0,1,0.639,99,1.0,0,observed
2438,8,0.0,0,1.654,100,1.0,0,observed
2439,8,0.0,1,0.386,100,1.0,0,observed
2440,8,1.0,0,1.013,101,0.0,0,observed
2441,8,0.0,1,0.405,101,1.0,0,observed
2442,8,1.0,0,0.708,102,0.0,0,observed
2443,8,1.0,1,1.262,102,0.0,0,observed
2444,8,0.0,0,0.676,103,1.0,0,observed
2445,8,0.0,1,0.376,103,0.0,0,observed
2446,8,0.0,0,0.603,104,0.0,0,observed
2447,8,0.0,1,0.31,104,0.0,0,observed
2448,8,1.0,0,0.974,105,0.0,0,observed
2449,8,1.0,1,0.456,105,0.0,0,observed
2450,8,1.0,0,1.161,106,0.0,0,observed
2451,8,1.0,1,0.55,106,0.0,0,observed
2452,8,1.0,0,0.581,107,1.0,0,observed
2453,8,0.0,1,0.42,107,1.0,0,observed
2454,8,1.0,0,1.548,108,0.0,0,observed
2455,8,0.0,1,0.323,108,1.0,0,observed
2456,8,0.0,0,0.432,109,1.0,0,observed
2457,8,0.0,1,0.321,109,1.0,0,observed
2458,8,0.0,0,1.039,110,1.0,0,observed
2459,8,0.0,1,0.521,110,1.0,0,observed
2460,8,1.0,0,0.826,111,0.0,0,observed
2461,8,0.0,1,0.425,111,1.0,0,observed
2462,8,0.0,0,0.924,112,1.0,0,observed
2463,8,0.0,1,0.306,112,1.0,0,observed
2464,8,0.0,0,0.717,113,1.0,0,observed
2465,8,0.0,1,0.415,113,1.0,0,observed
2466,8,0.0,0,0.501,114,1.0,0,observed
2467,8,0.0,1,0.296,114,1.0,0,observed
2468,8,1.0,0,0.556,115,0.0,0,observed
2469,8,0.0,1,0.462,115,1.0,0,observed
2470,8,0.0,0,0.729,116,1.0,0,observed
2471,8,0.0,1,0.408,116,1.0,0,observed
2472,8,1.0,0,1.036,117,0.0,0,observed
2473,8,0.0,1,0.731,117,0.0,0,observed
2474,8,0.0,0,0.581,118,1.0,0,observed
2475,8,1.0,1,0.361,118,0.0,0,observed
2476,8,0.0,0,0.681,119,1.0,0,observed
2477,8,1.0,1,0.397,119,1.0,0,observed
2478,8,0.0,0,0.626,120,1.0,0,observed
2479,8,1.0,1,0.332,120,0.0,0,observed
2480,8,0.0,0,0.666,121,0.0,0,observed
2481,8,0.0,1,0.332,121,0.0,0,observed
2482,8,1.0,0,0.688,122,1.0,0,observed
2483,8,1.0,1,0.503,122,1.0,0,observed
2484,8,1.0,0,0.626,123,0.0,0,observed
2485,8,1.0,1,0.396,123,1.0,0,observed
2486,8,1.0,0,0.673,124,0.0,0,observed
2487,8,1.0,1,0.346,124,1.0,0,observed
2488,8,0.0,0,0.859,125,0.0,0,observed
2489,8,1.0,1,0.293,125,1.0,0,observed
2490,8,0.0,0,0.867,126,0.0,0,observed
2491,8,1.0,1,0.251,126,0.0,0,observed
2492,8,0.0,0,0.803,127,1.0,0,observed
2493,8,1.0,1,0.429,127,1.0,0,observed
2494,8,0.0,0,0.557,128,0.0,0,observed
2495,8,0.0,1,0.377,128,0.0,0,observed
2496,8,1.0,0,0.513,129,1.0,0,observed
2497,8,1.0,1,0.39,129,1.0,0,observed
2498,8,1.0,0,0.522,130,1.0,0,observed
2499,8,1.0,1,0.604,130,1.0,0,observed
2500,8,1.0,0,0.879,131,0.0,0,observed
2501,8,1.0,1,0.373,131,0.0,0,observed
2502,8,0.0,0,0.749,132,0.0,0,observed
2503,8,1.0,1,0.316,132,0.0,0,observed
2504,8,1.0,0,0.582,133,0.0,0,observed
2505,8,0.0,1,0.479,133,0.0,0,observed
2506,8,0.0,0,0.595,134,0.0,0,observed
2507,8,1.0,1,0.399,134,1.0,0,observed
2508,8,1.0,0,2.272,135,0.0,0,observed
2509,8,0.0,1,0.584,135,1.0,0,observed
2510,8,1.0,0,0.766,136,0.0,0,observed
2511,8,1.0,1,0.866,136,1.0,0,observed
2512,8,0.0,0,0.751,137,0.0,0,observed
2513,8,0.0,1,0.488,137,0.0,0,observed
2514,8,1.0,0,0.51,138,1.0,0,observed
2515,8,1.0,1,0.538,138,0.0,0,observed
2516,8,1.0,0,0.927,139,1.0,0,observed
2517,8,1.0,1,0.248,139,0.0,0,observed
2518,8,1.0,0,0.687,140,1.0,0,observed
2519,8,1.0,1,0.615,140,0.0,0,observed
2520,8,1.0,0,0.655,141,0.0,0,observed
2521,8,0.0,1,0.368,141,0.0,0,observed
2522,8,1.0,0,0.875,142,1.0,0,observed
2523,8,1.0,1,0.583,142,1.0,0,observed
2524,8,0.0,0,1.896,143,0.0,0,observed
2525,8,1.0,1,0.365,143,1.0,0,observed
2526,8,0.0,0,0.926,144,0.0,0,observed
2527,8,1.0,1,0.432,144,1.0,0,observed
2528,8,1.0,0,0.968,145,1.0,0,observed
2529,8,1.0,1,0.356,145,0.0,0,observed
2530,8,0.0,0,1.187,146,0.0,0,observed
2531,8,0.0,1,0.963,146,0.0,0,observed
2532,8,0.0,0,0.586,147,1.0,0,observed
2533,8,1.0,1,0.405,147,1.0,0,observed
2534,8,1.0,0,0.651,148,0.0,0,observed
2535,8,1.0,1,0.653,148,1.0,0,observed
2536,8,1.0,0,0.602,149,1.0,0,observed
2537,8,1.0,1,1.319,149,1.0,0,observed
2538,8,1.0,0,1.184,150,0.0,0,observed
2539,8,1.0,1,0.776,150,1.0,0,observed
2540,8,1.0,0,0.848,151,1.0,0,observed
2541,8,1.0,1,0.615,151,1.0,0,observed
2542,8,1.0,0,1.446,152,0.0,0,observed
2543,8,1.0,1,0.495,152,1.0,0,observed
2544,8,1.0,0,1.141,153,1.0,0,observed
2545,8,1.0,1,0.714,153,1.0,0,observed
2546,8,1.0,0,0.965,154,1.0,0,observed
2547,8,1.0,1,0.65,154,1.0,0,observed
2548,8,1.0,0,1.179,155,1.0,0,observed
2549,8,1.0,1,0.549,155,0.0,0,observed
2550,8,1.0,0,0.436,156,1.0,0,observed
2551,8,0.0,1,0.334,156,1.0,0,observed
2552,8,0.0,0,0.432,157,0.0,0,observed
2553,8,1.0,1,0.66,157,0.0,0,observed
2554,8,0.0,0,0.352,158,0.0,0,observed
2555,8,0.0,1,0.306,158,0.0,0,observed
2556,8,1.0,0,1.058,159,1.0,0,observed
2557,8,0.0,1,0.401,159,0.0,0,observed
2558,8,0.0,0,0.623,160,0.0,0,observed
2559,8,1.0,1,0.297,160,0.0,0,observed
2560,9,1.0,0,1.749,1,0.0,0,observed
2561,9,1.0,1,1.786,1,1.0,0,observed
2562,9,0.0,0,1.289,2,1.0,0,observed
2563,9,1.0,1,1.377,2,1.0,0,observed
2564,9,1.0,0,0.526,3,0.0,0,observed
2565,9,1.0,1,0.591,3,1.0,0,observed
2566,9,0.0,0,0.505,4,1.0,0,observed
2567,9,1.0,1,0.453,4,0.0,0,observed
2568,9,0.0,0,0.396,5,0.0,0,observed
2569,9,0.0,1,0.497,5,1.0,0,observed
2570,9,1.0,0,0.506,6,0.0,0,observed
2571,9,0.0,1,1.534,6,0.0,0,observed
2572,9,1.0,0,0.36,7,1.0,0,observed
2573,9,1.0,1,0.325,7,0.0,0,observed
2574,9,0.0,0,0.688,8,1.0,0,observed
2575,9,1.0,1,0.213,8,1.0,0,observed
2576,9,0.0,0,0.729,9,0.0,0,observed
2577,9,1.0,1,0.369,9,0.0,0,observed
2578,9,0.0,0,0.358,10,1.0,0,observed
2579,9,0.0,1,1.091,10,0.0,0,observed
2580,9,0.0,0,0.305,11,0.0,0,observed
2581,9,1.0,1,0.597,11,0.0,0,observed
2582,9,1.0,0,0.712,12,0.0,0,observed
2583,9,0.0,1,0.181,12,0.0,0,observed
2584,9,0.0,0,0.401,13,1.0,0,observed
2585,9,1.0,1,1.279,13,0.0,0,observed
2586,9,0.0,0,0.38,14,1.0,0,observed
2587,9,1.0,1,0.156,14,0.0,0,observed
2588,9,0.0,0,0.301,15,0.0,0,observed
2589,9,1.0,1,0.298,15,0.0,0,observed
2590,9,1.0,0,0.319,16,0.0,0,observed
2591,9,0.0,1,0.204,16,0.0,0,observed
2592,9,0.0,0,0.305,17,1.0,0,observed
2593,9,1.0,1,0.386,17,0.0,0,observed
2594,9,1.0,0,0.277,18,1.0,0,observed
2595,9,1.0,1,0.715,18,0.0,0,observed
2596,9,0.0,0,0.314,19,1.0,0,observed
2597,9,1.0,1,0.516,19,1.0,0,observed
2598,9,1.0,0,0.254,20,0.0,0,observed
2599,9,1.0,1,0.513,20,1.0,0,observed
2600,9,0.0,0,0.308,21,1.0,0,observed
2601,9,0.0,1,0.411,21,1.0,0,observed
2602,9,0.0,0,0.316,22,1.0,0,observed
2603,9,0.0,1,0.381,22,1.0,0,observed
2604,9,0.0,0,0.296,23,1.0,0,observed
2605,9,0.0,1,0.316,23,1.0,0,observed
2606,9,0.0,0,0.272,24,1.0,0,observed
2607,9,1.0,1,0.389,24,0.0,0,observed
2608,9,0.0,0,0.231,25,0.0,0,observed
2609,9,0.0,1,0.283,25,1.0,0,observed
2610,9,0.0,0,0.154,26,0.0,0,observed
2611,9,1.0,1,0.306,26,0.0,0,observed
2612,9,0.0,0,0.628,27,1.0,0,observed
2613,9,0.0,1,0.794,27,1.0,0,observed
2614,9,1.0,0,0.85,28,0.0,0,observed
2615,9,0.0,1,0.44,28,0.0,0,observed
2616,9,1.0,0,0.256,29,0.0,0,observed
2617,9,1.0,1,0.293,29,1.0,0,observed
2618,9,1.0,0,0.412,30,0.0,0,observed
2619,9,1.0,1,0.298,30,0.0,0,observed
2620,9,0.0,0,0.334,31,0.0,0,observed
2621,9,1.0,1,0.216,31,0.0,0,observed
2622,9,0.0,0,0.269,32,1.0,0,observed
2623,9,0.0,1,0.487,32,1.0,0,observed
2624,9,0.0,0,0.267,33,1.0,0,observed
2625,9,1.0,1,0.901,33,0.0,0,observed
2626,9,1.0,0,1.301,34,0.0,0,observed
2627,9,1.0,1,0.363,34,0.0,0,observed
2628,9,1.0,0,0.313,35,1.0,0,observed
2629,9,1.0,1,1.542,35,0.0,0,observed
2630,9,0.0,0,0.285,36,0.0,0,observed
2631,9,1.0,1,0.289,36,0.0,0,observed
2632,9,0.0,0,0.193,37,0.0,0,observed
2633,9,1.0,1,0.665,37,0.0,0,observed
2634,9,0.0,0,0.245,38,1.0,0,observed
2635,9,1.0,1,0.72,38,0.0,0,observed
2636,9,1.0,0,0.272,39,0.0,0,observed
2637,9,1.0,1,2.135,39,0.0,0,observed
2638,9,0.0,0,0.233,40,1.0,0,observed
2639,9,1.0,1,0.546,40,0.0,0,observed
2640,9,0.0,0,1.161,41,1.0,0,observed
2641,9,1.0,1,0.794,41,1.0,0,observed
2642,9,0.0,0,0.78,42,1.0,0,observed
2643,9,1.0,1,0.401,42,0.0,0,observed
2644,9,0.0,0,0.427,43,0.0,0,observed
2645,9,0.0,1,0.885,43,0.0,0,observed
2646,9,1.0,0,0.176,44,1.0,0,observed
2647,9,1.0,1,0.265,44,0.0,0,observed
2648,9,1.0,0,0.4,45,1.0,0,observed
2649,9,0.0,1,0.633,45,0.0,0,observed
2650,9,0.0,0,0.563,46,0.0,0,observed
2651,9,0.0,1,0.513,46,0.0,0,observed
2652,9,1.0,0,0.348,47,0.0,0,observed
2653,9,1.0,1,0.261,47,0.0,0,observed
2654,9,0.0,0,0.531,48,1.0,0,observed
2655,9,0.0,1,0.328,48,1.0,0,observed
2656,9,0.0,0,0.217,49,0.0,0,observed
2657,9,0.0,1,0.323,49,0.0,0,observed
2658,9,1.0,0,0.24,50,0.0,0,observed
2659,9,0.0,1,0.272,50,1.0,0,observed
2660,9,0.0,0,1.246,51,0.0,0,observed
2661,9,0.0,1,0.177,51,0.0,0,observed
2662,9,0.0,0,0.602,52,1.0,0,observed
2663,9,1.0,1,0.548,52,0.0,0,observed
2664,9,0.0,0,0.313,53,0.0,0,observed
2665,9,1.0,1,0.485,53,1.0,0,observed
2666,9,0.0,0,0.315,54,0.0,0,observed
2667,9,0.0,1,1.427,54,1.0,0,observed
2668,9,1.0,0,0.28,55,1.0,0,observed
2669,9,1.0,1,0.165,55,0.0,0,observed
2670,9,0.0,0,0.223,56,0.0,0,observed
2671,9,0.0,1,0.474,56,0.0,0,observed
2672,9,1.0,0,0.311,57,0.0,0,observed
2673,9,0.0,1,0.168,57,0.0,0,observed
2674,9,0.0,0,0.228,58,1.0,0,observed
2675,9,1.0,1,0.371,58,1.0,0,observed
2676,9,0.0,0,0.176,59,1.0,0,observed
2677,9,0.0,1,0.294,59,0.0,0,observed
2678,9,1.0,0,0.341,60,1.0,0,observed
2679,9,0.0,1,0.365,60,1.0,0,observed
2680,9,1.0,0,0.235,61,1.0,0,observed
2681,9,1.0,1,0.865,61,0.0,0,observed
2682,9,0.0,0,0.281,62,0.0,0,observed
2683,9,0.0,1,0.337,62,0.0,0,observed
2684,9,1.0,0,0.195,63,1.0,0,observed
2685,9,0.0,1,0.484,63,0.0,0,observed
2686,9,0.0,0,0.225,64,0.0,0,observed
2687,9,1.0,1,0.43,64,1.0,0,observed
2688,9,0.0,0,0.204,65,1.0,0,observed
2689,9,0.0,1,0.165,65,1.0,0,observed
2690,9,1.0,0,0.195,66,1.0,0,observed
2691,9,0.0,1,0.469,66,0.0,0,observed
2692,9,0.0,0,0.179,67,0.0,0,observed
2693,9,0.0,1,1.111,67,0.0,0,observed
2694,9,1.0,0,0.193,68,1.0,0,observed
2695,9,0.0,1,0.241,68,0.0,0,observed
2696,9,0.0,0,0.602,69,0.0,0,observed
2697,9,0.0,1,0.818,69,0.0,0,observed
2698,9,0.0,0,0.416,70,0.0,0,observed
2699,9,1.0,1,0.424,70,1.0,0,observed
2700,9,0.0,0,0.179,71,0.0,0,observed
2701,9,0.0,1,0.344,71,0.0,0,observed
2702,9,0.0,0,1.586,72,1.0,0,observed
2703,9,1.0,1,0.335,72,1.0,0,observed
2704,9,0.0,0,1.566,73,0.0,0,observed
2705,9,0.0,1,0.248,73,1.0,0,observed
2706,9,1.0,0,1.89,74,0.0,0,observed
2707,9,1.0,1,0.242,74,1.0,0,observed
2708,9,1.0,0,0.255,75,0.0,0,observed
2709,9,0.0,1,0.35,75,0.0,0,observed
2710,9,1.0,0,0.376,76,1.0,0,observed
2711,9,1.0,1,0.175,76,1.0,0,observed
2712,9,1.0,0,0.208,77,1.0,0,observed
2713,9,1.0,1,0.299,77,1.0,0,observed
2714,9,0.0,0,0.281,78,0.0,0,observed
2715,9,0.0,1,1.365,78,0.0,0,observed
2716,9,1.0,0,0.722,79,1.0,0,observed
