,subj_idx,response,split_by,rt,trial,feedback,samp,type
39520,1,0.0,0,0.613,1,0.0,0,observed
39521,1,1.0,1,0.377,1,1.0,0,observed
39522,1,1.0,0,0.575,2,1.0,0,observed
39523,1,1.0,1,0.49,2,0.0,0,observed
39524,1,1.0,0,0.328,3,1.0,0,observed
39525,1,1.0,1,0.432,3,1.0,0,observed
39526,1,1.0,0,0.438,4,0.0,0,observed
39527,1,1.0,1,0.444,4,1.0,0,observed
39528,1,0.0,0,1.23,5,0.0,0,observed
39529,1,1.0,1,0.393,5,1.0,0,observed
39530,1,1.0,0,0.518,6,1.0,0,observed
39531,1,1.0,1,0.466,6,1.0,0,observed
39532,1,1.0,0,0.424,7,1.0,0,observed
39533,1,1.0,1,0.39,7,0.0,0,observed
39534,1,0.0,0,0.448,8,0.0,0,observed
39535,1,1.0,1,0.315,8,1.0,0,observed
39536,1,0.0,0,0.497,9,0.0,0,observed
39537,1,1.0,1,0.285,9,1.0,0,observed
39538,1,0.0,0,0.495,10,1.0,0,observed
39539,1,1.0,1,0.422,10,0.0,0,observed
39540,1,0.0,0,0.381,11,1.0,0,observed
39541,1,1.0,1,0.362,11,1.0,0,observed
39542,1,0.0,0,1.066,12,0.0,0,observed
39543,1,1.0,1,0.374,12,1.0,0,observed
39544,1,1.0,0,0.41,13,0.0,0,observed
39545,1,1.0,1,0.341,13,0.0,0,observed
39546,1,1.0,0,0.343,14,1.0,0,observed
39547,1,1.0,1,0.322,14,0.0,0,observed
39548,1,1.0,0,0.402,15,0.0,0,observed
39549,1,1.0,1,0.392,15,1.0,0,observed
39550,1,0.0,0,1.016,16,0.0,0,observed
39551,1,1.0,1,0.318,16,0.0,0,observed
39552,1,1.0,0,0.401,17,1.0,0,observed
39553,1,1.0,1,0.313,17,0.0,0,observed
39554,1,1.0,0,0.384,18,1.0,0,observed
39555,1,1.0,1,0.249,18,0.0,0,observed
39556,1,1.0,0,0.38,19,0.0,0,observed
39557,1,0.0,1,0.366,19,1.0,0,observed
39558,1,1.0,0,0.398,20,1.0,0,observed
39559,1,0.0,1,0.31,20,1.0,0,observed
39560,1,1.0,0,0.279,21,0.0,0,observed
39561,1,0.0,1,0.576,21,0.0,0,observed
39562,1,1.0,0,0.323,22,1.0,0,observed
39563,1,0.0,1,0.286,22,0.0,0,observed
39564,1,1.0,0,0.351,23,0.0,0,observed
39565,1,0.0,1,0.287,23,0.0,0,observed
39566,1,0.0,0,0.612,24,1.0,0,observed
39567,1,1.0,1,0.38,24,1.0,0,observed
39568,1,0.0,0,0.315,25,0.0,0,observed
39569,1,1.0,1,0.338,25,1.0,0,observed
39570,1,0.0,0,0.539,26,1.0,0,observed
39571,1,1.0,1,0.325,26,1.0,0,observed
39572,1,0.0,0,0.407,27,0.0,0,observed
39573,1,1.0,1,0.259,27,1.0,0,observed
39574,1,0.0,0,0.346,28,0.0,0,observed
39575,1,1.0,1,0.233,28,0.0,0,observed
39576,1,0.0,0,0.495,29,0.0,0,observed
39577,1,1.0,1,0.296,29,1.0,0,observed
39578,1,1.0,0,0.377,30,0.0,0,observed
39579,1,1.0,1,0.359,30,0.0,0,observed
39580,1,1.0,0,0.323,31,1.0,0,observed
39581,1,1.0,1,0.343,31,1.0,0,observed
39582,1,1.0,0,0.456,32,1.0,0,observed
39583,1,1.0,1,0.383,32,1.0,0,observed
39584,1,1.0,0,0.661,33,1.0,0,observed
39585,1,1.0,1,0.432,33,1.0,0,observed
39586,1,1.0,0,0.346,34,0.0,0,observed
39587,1,1.0,1,0.391,34,1.0,0,observed
39588,1,1.0,0,0.379,35,1.0,0,observed
39589,1,1.0,1,0.558,35,1.0,0,observed
39590,1,1.0,0,0.38,36,1.0,0,observed
39591,1,1.0,1,0.291,36,1.0,0,observed
39592,1,1.0,0,0.394,37,1.0,0,observed
39593,1,1.0,1,0.333,37,1.0,0,observed
39594,1,1.0,0,0.466,38,1.0,0,observed
39595,1,1.0,1,0.439,38,1.0,0,observed
39596,1,1.0,0,0.32,39,1.0,0,observed
39597,1,1.0,1,0.397,39,1.0,0,observed
39598,1,1.0,0,0.39,40,1.0,0,observed
39599,1,1.0,1,0.511,40,1.0,0,observed
39600,1,0.0,0,0.322,41,1.0,0,observed
39601,1,0.0,1,0.373,41,0.0,0,observed
39602,1,0.0,0,0.455,42,1.0,0,observed
39603,1,0.0,1,0.404,42,1.0,0,observed
39604,1,0.0,0,0.371,43,0.0,0,observed
39605,1,0.0,1,0.432,43,1.0,0,observed
39606,1,0.0,0,0.368,44,0.0,0,observed
39607,1,0.0,1,0.604,44,1.0,0,observed
39608,1,1.0,0,0.398,45,1.0,0,observed
39609,1,0.0,1,0.521,45,0.0,0,observed
39610,1,1.0,0,0.354,46,0.0,0,observed
39611,1,0.0,1,0.351,46,1.0,0,observed
39612,1,0.0,0,0.822,47,0.0,0,observed
39613,1,0.0,1,0.342,47,0.0,0,observed
39614,1,1.0,0,0.427,48,0.0,0,observed
39615,1,0.0,1,0.353,48,0.0,0,observed
39616,1,0.0,0,0.425,49,0.0,0,observed
39617,1,1.0,1,0.328,49,0.0,0,observed
39618,1,0.0,0,0.448,50,0.0,0,observed
39619,1,1.0,1,0.326,50,1.0,0,observed
39620,1,0.0,0,0.36,51,0.0,0,observed
39621,1,1.0,1,0.34,51,0.0,0,observed
39622,1,1.0,0,0.358,52,0.0,0,observed
39623,1,1.0,1,0.747,52,0.0,0,observed
39624,1,1.0,0,0.423,53,0.0,0,observed
39625,1,0.0,1,0.662,53,1.0,0,observed
39626,1,0.0,0,0.294,54,0.0,0,observed
39627,1,0.0,1,0.402,54,1.0,0,observed
39628,1,0.0,0,0.407,55,0.0,0,observed
39629,1,0.0,1,0.329,55,1.0,0,observed
39630,1,0.0,0,0.636,56,0.0,0,observed
39631,1,0.0,1,0.323,56,0.0,0,observed
39632,1,1.0,0,0.322,57,1.0,0,observed
39633,1,1.0,1,1.052,57,1.0,0,observed
39634,1,1.0,0,0.35,58,1.0,0,observed
39635,1,0.0,1,0.322,58,0.0,0,observed
39636,1,1.0,0,0.458,59,0.0,0,observed
39637,1,0.0,1,1.004,59,1.0,0,observed
39638,1,0.0,0,0.581,60,1.0,0,observed
39639,1,0.0,1,0.352,60,1.0,0,observed
39640,1,0.0,0,0.307,61,0.0,0,observed
39641,1,0.0,1,0.266,61,0.0,0,observed
39642,1,0.0,0,0.432,62,1.0,0,observed
39643,1,1.0,1,0.411,62,1.0,0,observed
39644,1,0.0,0,0.462,63,1.0,0,observed
39645,1,0.0,1,1.196,63,0.0,0,observed
39646,1,0.0,0,0.245,64,1.0,0,observed
39647,1,0.0,1,0.684,64,0.0,0,observed
39648,1,0.0,0,0.494,65,0.0,0,observed
39649,1,1.0,1,0.689,65,1.0,0,observed
39650,1,0.0,0,0.52,66,0.0,0,observed
39651,1,1.0,1,0.374,66,1.0,0,observed
39652,1,1.0,0,0.187,67,1.0,0,observed
39653,1,1.0,1,0.367,67,1.0,0,observed
39654,1,1.0,0,0.478,68,1.0,0,observed
39655,1,1.0,1,0.833,68,1.0,0,observed
39656,1,1.0,0,0.396,69,1.0,0,observed
39657,1,1.0,1,0.549,69,1.0,0,observed
39658,1,1.0,0,0.384,70,0.0,0,observed
39659,1,1.0,1,0.281,70,1.0,0,observed
39660,1,0.0,0,0.302,71,0.0,0,observed
39661,1,1.0,1,0.252,71,1.0,0,observed
39662,1,0.0,0,0.326,72,0.0,0,observed
39663,1,1.0,1,0.42,72,1.0,0,observed
39664,1,1.0,0,0.25,73,1.0,0,observed
39665,1,1.0,1,0.515,73,1.0,0,observed
39666,1,1.0,0,0.307,74,1.0,0,observed
39667,1,1.0,1,0.499,74,1.0,0,observed
39668,1,1.0,0,0.282,75,1.0,0,observed
39669,1,1.0,1,0.277,75,1.0,0,observed
39670,1,0.0,0,1.815,76,0.0,0,observed
39671,1,1.0,1,0.518,76,1.0,0,observed
39672,1,1.0,0,0.604,77,1.0,0,observed
39673,1,1.0,1,0.538,77,1.0,0,observed
39674,1,1.0,0,1.234,78,1.0,0,observed
39675,1,1.0,1,0.386,78,1.0,0,observed
39676,1,1.0,0,0.349,79,1.0,0,observed
39677,1,1.0,1,0.418,79,1.0,0,observed
39678,1,1.0,0,0.356,80,1.0,0,observed
39679,1,1.0,1,0.459,80,1.0,0,observed
39680,1,0.0,0,0.346,81,1.0,0,observed
39681,1,0.0,1,0.334,81,1.0,0,observed
39682,1,0.0,0,0.259,82,1.0,0,observed
39683,1,0.0,1,0.323,82,0.0,0,observed
39684,1,0.0,0,0.442,83,0.0,0,observed
39685,1,1.0,1,0.378,83,1.0,0,observed
39686,1,0.0,0,0.547,84,0.0,0,observed
39687,1,1.0,1,0.625,84,1.0,0,observed
39688,1,0.0,0,0.643,85,1.0,0,observed
39689,1,1.0,1,0.294,85,1.0,0,observed
39690,1,0.0,0,0.372,86,0.0,0,observed
39691,1,1.0,1,0.425,86,0.0,0,observed
39692,1,1.0,0,0.452,87,1.0,0,observed
39693,1,0.0,1,0.404,87,0.0,0,observed
39694,1,1.0,0,0.332,88,1.0,0,observed
39695,1,1.0,1,0.656,88,0.0,0,observed
39696,1,1.0,0,0.326,89,1.0,0,observed
39697,1,0.0,1,0.537,89,0.0,0,observed
39698,1,1.0,0,0.449,90,1.0,0,observed
39699,1,1.0,1,0.407,90,0.0,0,observed
39700,1,1.0,0,0.528,91,0.0,0,observed
39701,1,1.0,1,0.534,91,0.0,0,observed
39702,1,1.0,0,0.32,92,0.0,0,observed
39703,1,1.0,1,0.453,92,0.0,0,observed
39704,1,0.0,0,0.334,93,1.0,0,observed
39705,1,0.0,1,0.376,93,1.0,0,observed
39706,1,0.0,0,0.728,94,0.0,0,observed
39707,1,0.0,1,0.653,94,0.0,0,observed
39708,1,1.0,0,0.461,95,1.0,0,observed
39709,1,0.0,1,0.259,95,1.0,0,observed
39710,1,1.0,0,0.474,96,1.0,0,observed
39711,1,0.0,1,0.328,96,0.0,0,observed
39712,1,1.0,0,0.368,97,1.0,0,observed
39713,1,0.0,1,0.463,97,0.0,0,observed
39714,1,1.0,0,0.595,98,1.0,0,observed
39715,1,1.0,1,0.302,98,1.0,0,observed
39716,1,1.0,0,0.425,99,1.0,0,observed
39717,1,1.0,1,0.466,99,1.0,0,observed
39718,1,1.0,0,0.325,100,0.0,0,observed
39719,1,1.0,1,0.5,100,1.0,0,observed
39720,1,0.0,0,0.806,101,0.0,0,observed
39721,1,1.0,1,0.311,101,0.0,0,observed
39722,1,1.0,0,0.431,102,0.0,0,observed
39723,1,0.0,1,0.669,102,0.0,0,observed
39724,1,1.0,0,0.361,103,1.0,0,observed
39725,1,1.0,1,0.383,103,1.0,0,observed
39726,1,1.0,0,0.682,104,0.0,0,observed
39727,1,1.0,1,0.466,104,1.0,0,observed
39728,1,1.0,0,0.452,105,1.0,0,observed
39729,1,1.0,1,0.503,105,1.0,0,observed
39730,1,1.0,0,0.491,106,0.0,0,observed
39731,1,1.0,1,0.684,106,1.0,0,observed
39732,1,1.0,0,0.477,107,1.0,0,observed
39733,1,1.0,1,0.386,107,1.0,0,observed
39734,1,1.0,0,0.493,108,1.0,0,observed
39735,1,1.0,1,0.384,108,0.0,0,observed
39736,1,1.0,0,0.733,109,0.0,0,observed
39737,1,1.0,1,0.282,109,1.0,0,observed
39738,1,1.0,0,1.243,110,1.0,0,observed
39739,1,1.0,1,0.535,110,1.0,0,observed
39740,1,1.0,0,0.302,111,1.0,0,observed
39741,1,1.0,1,0.271,111,1.0,0,observed
39742,1,1.0,0,0.438,112,0.0,0,observed
39743,1,1.0,1,0.362,112,1.0,0,observed
39744,1,0.0,0,0.357,113,0.0,0,observed
39745,1,1.0,1,0.288,113,1.0,0,observed
39746,1,0.0,0,0.394,114,0.0,0,observed
39747,1,1.0,1,0.346,114,1.0,0,observed
39748,1,1.0,0,0.385,115,1.0,0,observed
39749,1,1.0,1,0.602,115,1.0,0,observed
39750,1,1.0,0,0.421,116,1.0,0,observed
39751,1,1.0,1,0.513,116,0.0,0,observed
39752,1,1.0,0,0.316,117,1.0,0,observed
39753,1,1.0,1,0.355,117,0.0,0,observed
39754,1,1.0,0,0.323,118,1.0,0,observed
39755,1,1.0,1,0.304,118,1.0,0,observed
39756,1,1.0,0,0.467,119,1.0,0,observed
39757,1,1.0,1,0.383,119,1.0,0,observed
39758,1,1.0,0,0.378,120,1.0,0,observed
39759,1,1.0,1,0.295,120,1.0,0,observed
39760,1,0.0,0,0.45,121,0.0,0,observed
39761,1,0.0,1,0.37,121,0.0,0,observed
39762,1,0.0,0,0.275,122,0.0,0,observed
39763,1,0.0,1,0.293,122,1.0,0,observed
39764,1,0.0,0,0.36,123,1.0,0,observed
39765,1,0.0,1,0.327,123,0.0,0,observed
39766,1,0.0,0,0.351,124,1.0,0,observed
39767,1,0.0,1,0.302,124,1.0,0,observed
39768,1,0.0,0,0.356,125,1.0,0,observed
39769,1,0.0,1,0.448,125,0.0,0,observed
39770,1,0.0,0,0.287,126,1.0,0,observed
39771,1,0.0,1,0.241,126,0.0,0,observed
39772,1,0.0,0,0.296,127,0.0,0,observed
39773,1,1.0,1,0.584,127,1.0,0,observed
39774,1,0.0,0,0.334,128,0.0,0,observed
39775,1,1.0,1,0.349,128,1.0,0,observed
39776,1,0.0,0,0.239,129,1.0,0,observed
39777,1,1.0,1,0.564,129,1.0,0,observed
39778,1,0.0,0,0.47,130,1.0,0,observed
39779,1,1.0,1,0.397,130,1.0,0,observed
39780,1,0.0,0,0.451,131,1.0,0,observed
39781,1,1.0,1,0.495,131,0.0,0,observed
39782,1,0.0,0,0.342,132,0.0,0,observed
39783,1,1.0,1,0.527,132,0.0,0,observed
39784,1,0.0,0,0.275,133,1.0,0,observed
39785,1,1.0,1,0.484,133,1.0,0,observed
39786,1,0.0,0,0.387,134,1.0,0,observed
39787,1,1.0,1,0.533,134,0.0,0,observed
39788,1,0.0,0,0.314,135,0.0,0,observed
39789,1,1.0,1,0.492,135,0.0,0,observed
39790,1,0.0,0,0.281,136,0.0,0,observed
39791,1,0.0,1,0.283,136,1.0,0,observed
39792,1,0.0,0,0.303,137,0.0,0,observed
39793,1,0.0,1,0.401,137,0.0,0,observed
39794,1,0.0,0,0.326,138,0.0,0,observed
39795,1,0.0,1,0.382,138,1.0,0,observed
39796,1,0.0,0,0.264,139,0.0,0,observed
39797,1,0.0,1,0.472,139,1.0,0,observed
39798,1,1.0,0,0.319,140,1.0,0,observed
39799,1,0.0,1,0.336,140,1.0,0,observed
39800,1,1.0,0,0.258,141,1.0,0,observed
39801,1,0.0,1,0.595,141,0.0,0,observed
39802,1,1.0,0,0.434,142,1.0,0,observed
39803,1,0.0,1,0.289,142,0.0,0,observed
39804,1,1.0,0,0.556,143,1.0,0,observed
39805,1,0.0,1,0.333,143,0.0,0,observed
39806,1,1.0,0,0.6,144,1.0,0,observed
39807,1,1.0,1,0.305,144,0.0,0,observed
39808,1,1.0,0,0.276,145,0.0,0,observed
39809,1,1.0,1,0.266,145,1.0,0,observed
39810,1,1.0,0,0.342,146,1.0,0,observed
39811,1,1.0,1,0.258,146,1.0,0,observed
39812,1,1.0,0,0.546,147,1.0,0,observed
39813,1,1.0,1,0.445,147,1.0,0,observed
39814,1,1.0,0,0.456,148,1.0,0,observed
39815,1,1.0,1,0.497,148,0.0,0,observed
39816,1,1.0,0,0.496,149,0.0,0,observed
39817,1,1.0,1,0.309,149,1.0,0,observed
39818,1,1.0,0,0.412,150,1.0,0,observed
39819,1,1.0,1,0.955,150,1.0,0,observed
39820,1,1.0,0,0.312,151,1.0,0,observed
39821,1,1.0,1,0.89,151,1.0,0,observed
39822,1,1.0,0,0.395,152,0.0,0,observed
39823,1,1.0,1,1.858,152,1.0,0,observed
39824,1,1.0,0,0.486,153,1.0,0,observed
39825,1,1.0,1,0.366,153,1.0,0,observed
39826,1,1.0,0,0.585,154,1.0,0,observed
39827,1,1.0,1,1.337,154,1.0,0,observed
39828,1,1.0,0,0.329,155,1.0,0,observed
39829,1,1.0,1,0.525,155,1.0,0,observed
39830,1,1.0,0,0.374,156,1.0,0,observed
39831,1,0.0,1,0.708,156,0.0,0,observed
39832,1,1.0,0,0.401,157,1.0,0,observed
39833,1,1.0,1,2.376,157,1.0,0,observed
39834,1,1.0,0,0.464,158,1.0,0,observed
39835,1,1.0,1,0.269,158,1.0,0,observed
39836,1,1.0,0,0.425,159,1.0,0,observed
39837,1,0.0,1,0.934,159,0.0,0,observed
39838,1,1.0,0,0.373,160,1.0,0,observed
39839,1,1.0,1,0.449,160,1.0,0,observed
57120,2,0.0,0,0.338,1,0.0,0,observed
57121,2,0.0,1,1.139,1,0.0,0,observed
57122,2,1.0,0,1.037,2,1.0,0,observed
57123,2,0.0,1,1.175,2,0.0,0,observed
57124,2,1.0,0,1.15,3,1.0,0,observed
57125,2,1.0,1,0.378,3,0.0,0,observed
57126,2,1.0,0,0.324,4,0.0,0,observed
57127,2,1.0,1,0.939,4,1.0,0,observed
57128,2,0.0,0,0.403,5,1.0,0,observed
57129,2,1.0,1,0.653,5,0.0,0,observed
57130,2,1.0,0,1.821,6,0.0,0,observed
57131,2,0.0,1,0.591,6,0.0,0,observed
57132,2,0.0,0,1.306,7,0.0,0,observed
57133,2,1.0,1,0.727,7,0.0,0,observed
57134,2,1.0,0,1.755,8,0.0,0,observed
57135,2,1.0,1,0.366,8,0.0,0,observed
57136,2,1.0,0,0.389,9,1.0,0,observed
57137,2,0.0,1,0.404,9,0.0,0,observed
57138,2,0.0,0,1.177,10,1.0,0,observed
57139,2,0.0,1,1.479,10,1.0,0,observed
57140,2,1.0,0,0.99,11,1.0,0,observed
57141,2,0.0,1,0.479,11,0.0,0,observed
57142,2,0.0,0,1.053,12,1.0,0,observed
57143,2,0.0,1,1.541,12,0.0,0,observed
57144,2,1.0,0,0.715,13,1.0,0,observed
57145,2,1.0,1,0.578,13,1.0,0,observed
57146,2,0.0,0,0.329,14,0.0,0,observed
57147,2,1.0,1,0.766,14,1.0,0,observed
57148,2,1.0,0,0.716,15,1.0,0,observed
57149,2,1.0,1,0.679,15,0.0,0,observed
57150,2,0.0,0,0.453,16,1.0,0,observed
57151,2,0.0,1,1.203,16,1.0,0,observed
57152,2,0.0,0,0.654,17,1.0,0,observed
57153,2,1.0,1,0.478,17,1.0,0,observed
57154,2,1.0,0,0.654,18,1.0,0,observed
57155,2,1.0,1,0.515,18,1.0,0,observed
57156,2,0.0,0,0.816,19,0.0,0,observed
57157,2,0.0,1,0.678,19,0.0,0,observed
57158,2,0.0,0,0.804,20,0.0,0,observed
57159,2,1.0,1,2.029,20,0.0,0,observed
57160,2,0.0,0,0.815,21,0.0,0,observed
57161,2,1.0,1,0.916,21,0.0,0,observed
57162,2,0.0,0,0.666,22,0.0,0,observed
57163,2,0.0,1,0.504,22,0.0,0,observed
57164,2,1.0,0,1.116,23,1.0,0,observed
57165,2,1.0,1,0.767,23,1.0,0,observed
57166,2,1.0,0,0.403,24,0.0,0,observed
57167,2,1.0,1,0.778,24,1.0,0,observed
57168,2,0.0,0,0.779,25,0.0,0,observed
57169,2,0.0,1,0.428,25,0.0,0,observed
57170,2,1.0,0,0.504,26,0.0,0,observed
57171,2,0.0,1,0.218,26,0.0,0,observed
57172,2,1.0,0,1.052,27,1.0,0,observed
57173,2,1.0,1,0.43,27,1.0,0,observed
57174,2,1.0,0,1.917,28,1.0,0,observed
57175,2,1.0,1,0.754,28,1.0,0,observed
57176,2,1.0,0,0.764,29,0.0,0,observed
57177,2,1.0,1,0.653,29,0.0,0,observed
57178,2,0.0,0,0.255,30,1.0,0,observed
57179,2,1.0,1,0.542,30,1.0,0,observed
57180,2,0.0,0,0.334,31,1.0,0,observed
57181,2,0.0,1,1.267,31,0.0,0,observed
57182,2,1.0,0,0.566,32,1.0,0,observed
57183,2,1.0,1,0.244,32,1.0,0,observed
57184,2,0.0,0,0.728,33,0.0,0,observed
57185,2,1.0,1,1.617,33,1.0,0,observed
57186,2,1.0,0,0.992,34,1.0,0,observed
57187,2,0.0,1,0.763,34,1.0,0,observed
57188,2,1.0,0,2.427,35,1.0,0,observed
57189,2,1.0,1,0.828,35,1.0,0,observed
57190,2,0.0,0,1.039,36,0.0,0,observed
57191,2,0.0,1,0.391,36,0.0,0,observed
57192,2,1.0,0,0.279,37,1.0,0,observed
57193,2,1.0,1,0.703,37,1.0,0,observed
57194,2,1.0,0,0.655,38,1.0,0,observed
57195,2,0.0,1,0.479,38,1.0,0,observed
57196,2,1.0,0,0.664,39,1.0,0,observed
57197,2,1.0,1,0.523,39,1.0,0,observed
57198,2,1.0,0,0.679,40,1.0,0,observed
57199,2,1.0,1,0.465,40,1.0,0,observed
57200,2,0.0,0,0.335,41,1.0,0,observed
57201,2,0.0,1,0.408,41,1.0,0,observed
57202,2,0.0,0,0.675,42,1.0,0,observed
57203,2,1.0,1,0.528,42,1.0,0,observed
57204,2,0.0,0,0.452,43,0.0,0,observed
57205,2,0.0,1,0.397,43,1.0,0,observed
57206,2,1.0,0,0.392,44,1.0,0,observed
57207,2,0.0,1,0.367,44,0.0,0,observed
57208,2,0.0,0,0.279,45,1.0,0,observed
57209,2,1.0,1,0.479,45,1.0,0,observed
57210,2,1.0,0,0.94,46,1.0,0,observed
57211,2,1.0,1,0.566,46,1.0,0,observed
57212,2,0.0,0,0.404,47,1.0,0,observed
57213,2,0.0,1,0.967,47,0.0,0,observed
57214,2,1.0,0,0.691,48,1.0,0,observed
57215,2,1.0,1,0.443,48,1.0,0,observed
57216,2,0.0,0,0.666,49,1.0,0,observed
57217,2,1.0,1,0.49,49,0.0,0,observed
57218,2,1.0,0,0.453,50,1.0,0,observed
57219,2,1.0,1,1.092,50,1.0,0,observed
57220,2,0.0,0,0.704,51,1.0,0,observed
57221,2,0.0,1,0.604,51,0.0,0,observed
57222,2,1.0,0,0.579,52,0.0,0,observed
57223,2,0.0,1,1.018,52,1.0,0,observed
57224,2,0.0,0,0.503,53,0.0,0,observed
57225,2,0.0,1,0.886,53,0.0,0,observed
57226,2,0.0,0,0.397,54,0.0,0,observed
57227,2,1.0,1,0.466,54,0.0,0,observed
57228,2,1.0,0,0.371,55,0.0,0,observed
57229,2,1.0,1,0.381,55,1.0,0,observed
57230,2,1.0,0,0.178,56,1.0,0,observed
57231,2,0.0,1,0.566,56,1.0,0,observed
57232,2,1.0,0,0.728,57,0.0,0,observed
57233,2,1.0,1,0.516,57,0.0,0,observed
57234,2,0.0,0,0.391,58,1.0,0,observed
57235,2,1.0,1,0.712,58,0.0,0,observed
57236,2,0.0,0,0.69,59,0.0,0,observed
57237,2,1.0,1,1.905,59,1.0,0,observed
57238,2,1.0,0,1.192,60,1.0,0,observed
57239,2,0.0,1,0.464,60,0.0,0,observed
57240,2,0.0,0,0.578,61,1.0,0,observed
57241,2,1.0,1,0.391,61,0.0,0,observed
57242,2,1.0,0,0.403,62,1.0,0,observed
57243,2,1.0,1,0.38,62,0.0,0,observed
57244,2,0.0,0,0.604,63,0.0,0,observed
57245,2,1.0,1,0.342,63,0.0,0,observed
57246,2,1.0,0,0.31,64,0.0,0,observed
57247,2,0.0,1,0.566,64,0.0,0,observed
57248,2,1.0,0,0.421,65,1.0,0,observed
57249,2,1.0,1,0.351,65,0.0,0,observed
57250,2,0.0,0,0.265,66,0.0,0,observed
57251,2,1.0,1,0.954,66,1.0,0,observed
57252,2,1.0,0,0.242,67,1.0,0,observed
57253,2,0.0,1,0.627,67,0.0,0,observed
57254,2,1.0,0,0.678,68,1.0,0,observed
57255,2,1.0,1,1.13,68,1.0,0,observed
57256,2,1.0,0,0.578,69,1.0,0,observed
57257,2,1.0,1,0.729,69,1.0,0,observed
57258,2,1.0,0,0.365,70,1.0,0,observed
57259,2,1.0,1,0.516,70,1.0,0,observed
57260,2,1.0,0,0.504,71,1.0,0,observed
57261,2,1.0,1,0.506,71,1.0,0,observed
57262,2,1.0,0,0.405,72,1.0,0,observed
57263,2,1.0,1,0.487,72,1.0,0,observed
57264,2,1.0,0,0.403,73,1.0,0,observed
57265,2,1.0,1,0.617,73,1.0,0,observed
57266,2,1.0,0,0.442,74,1.0,0,observed
57267,2,1.0,1,0.352,74,1.0,0,observed
57268,2,1.0,0,0.428,75,1.0,0,observed
57269,2,1.0,1,0.366,75,1.0,0,observed
57270,2,1.0,0,0.478,76,1.0,0,observed
57271,2,1.0,1,0.565,76,1.0,0,observed
57272,2,1.0,0,0.467,77,1.0,0,observed
57273,2,1.0,1,0.383,77,1.0,0,observed
57274,2,1.0,0,0.315,78,1.0,0,observed
57275,2,1.0,1,0.351,78,1.0,0,observed
57276,2,1.0,0,0.514,79,1.0,0,observed
57277,2,1.0,1,0.404,79,1.0,0,observed
57278,2,1.0,0,0.666,80,1.0,0,observed
57279,2,1.0,1,0.662,80,1.0,0,observed
57280,2,0.0,0,0.485,81,0.0,0,observed
57281,2,0.0,1,0.647,81,0.0,0,observed
57282,2,1.0,0,0.416,82,0.0,0,observed
57283,2,1.0,1,0.904,82,0.0,0,observed
57284,2,0.0,0,0.969,83,0.0,0,observed
57285,2,1.0,1,0.804,83,1.0,0,observed
57286,2,0.0,0,0.306,84,1.0,0,observed
57287,2,0.0,1,0.515,84,0.0,0,observed
57288,2,1.0,0,0.38,85,1.0,0,observed
57289,2,1.0,1,0.379,85,1.0,0,observed
57290,2,1.0,0,0.354,86,0.0,0,observed
57291,2,1.0,1,0.666,86,1.0,0,observed
57292,2,1.0,0,0.504,87,1.0,0,observed
57293,2,0.0,1,1.014,87,1.0,0,observed
57294,2,0.0,0,0.665,88,1.0,0,observed
57295,2,1.0,1,0.317,88,1.0,0,observed
57296,2,1.0,0,0.477,89,0.0,0,observed
57297,2,1.0,1,0.718,89,1.0,0,observed
57298,2,0.0,0,2.042,90,0.0,0,observed
57299,2,0.0,1,0.417,90,1.0,0,observed
57300,2,1.0,0,0.453,91,1.0,0,observed
57301,2,1.0,1,0.401,91,0.0,0,observed
57302,2,0.0,0,0.29,92,1.0,0,observed
57303,2,0.0,1,0.455,92,1.0,0,observed
57304,2,1.0,0,0.355,93,1.0,0,observed
57305,2,1.0,1,0.603,93,0.0,0,observed
57306,2,1.0,0,0.377,94,0.0,0,observed
57307,2,0.0,1,0.467,94,1.0,0,observed
57308,2,0.0,0,1.918,95,0.0,0,observed
57309,2,0.0,1,0.387,95,0.0,0,observed
57310,2,0.0,0,1.491,96,0.0,0,observed
57311,2,0.0,1,0.429,96,0.0,0,observed
57312,2,1.0,0,0.428,97,0.0,0,observed
57313,2,0.0,1,0.379,97,0.0,0,observed
57314,2,1.0,0,0.441,98,1.0,0,observed
57315,2,0.0,1,0.592,98,1.0,0,observed
57316,2,1.0,0,1.553,99,0.0,0,observed
57317,2,1.0,1,0.416,99,1.0,0,observed
57318,2,0.0,0,1.804,100,0.0,0,observed
57319,2,1.0,1,0.679,100,0.0,0,observed
57320,2,0.0,0,0.696,101,1.0,0,observed
57321,2,0.0,1,0.916,101,1.0,0,observed
57322,2,1.0,0,0.221,102,0.0,0,observed
57323,2,0.0,1,1.038,102,0.0,0,observed
57324,2,0.0,0,0.329,103,1.0,0,observed
57325,2,0.0,1,0.381,103,0.0,0,observed
57326,2,1.0,0,1.266,104,1.0,0,observed
57327,2,0.0,1,0.916,104,0.0,0,observed
57328,2,1.0,0,0.566,105,1.0,0,observed
57329,2,1.0,1,1.966,105,0.0,0,observed
57330,2,1.0,0,0.378,106,1.0,0,observed
57331,2,0.0,1,0.492,106,0.0,0,observed
57332,2,1.0,0,1.44,107,0.0,0,observed
57333,2,1.0,1,1.179,107,1.0,0,observed
57334,2,0.0,0,0.491,108,0.0,0,observed
57335,2,1.0,1,0.503,108,1.0,0,observed
57336,2,1.0,0,0.591,109,1.0,0,observed
57337,2,1.0,1,0.525,109,1.0,0,observed
57338,2,1.0,0,0.578,110,1.0,0,observed
57339,2,1.0,1,0.429,110,1.0,0,observed
57340,2,0.0,0,1.54,111,0.0,0,observed
57341,2,1.0,1,0.391,111,1.0,0,observed
57342,2,1.0,0,0.528,112,1.0,0,observed
57343,2,1.0,1,0.366,112,1.0,0,observed
57344,2,1.0,0,0.482,113,1.0,0,observed
57345,2,1.0,1,1.003,113,1.0,0,observed
57346,2,1.0,0,0.564,114,1.0,0,observed
57347,2,1.0,1,0.428,114,0.0,0,observed
57348,2,0.0,0,0.366,115,0.0,0,observed
57349,2,0.0,1,0.529,115,0.0,0,observed
57350,2,1.0,0,0.416,116,1.0,0,observed
57351,2,0.0,1,0.491,116,0.0,0,observed
57352,2,1.0,0,0.678,117,1.0,0,observed
57353,2,0.0,1,0.514,117,0.0,0,observed
57354,2,1.0,0,0.603,118,1.0,0,observed
57355,2,1.0,1,0.418,118,1.0,0,observed
57356,2,1.0,0,0.391,119,1.0,0,observed
57357,2,1.0,1,0.577,119,1.0,0,observed
57358,2,1.0,0,0.629,120,0.0,0,observed
57359,2,1.0,1,0.403,120,1.0,0,observed
57360,2,1.0,0,0.385,121,0.0,0,observed
57361,2,0.0,1,0.46,121,0.0,0,observed
57362,2,0.0,0,1.028,122,1.0,0,observed
57363,2,0.0,1,0.628,122,1.0,0,observed
57364,2,0.0,0,0.377,123,0.0,0,observed
57365,2,0.0,1,0.417,123,1.0,0,observed
57366,2,0.0,0,0.856,124,0.0,0,observed
57367,2,0.0,1,0.549,124,0.0,0,observed
57368,2,0.0,0,1.364,125,1.0,0,observed
57369,2,0.0,1,0.416,125,0.0,0,observed
57370,2,1.0,0,0.615,126,1.0,0,observed
57371,2,1.0,1,0.529,126,0.0,0,observed
57372,2,1.0,0,0.503,127,1.0,0,observed
57373,2,0.0,1,0.592,127,1.0,0,observed
57374,2,0.0,0,1.015,128,1.0,0,observed
57375,2,0.0,1,0.516,128,0.0,0,observed
57376,2,1.0,0,0.528,129,1.0,0,observed
57377,2,0.0,1,1.116,129,0.0,0,observed
57378,2,1.0,0,0.341,130,0.0,0,observed
57379,2,1.0,1,0.917,130,1.0,0,observed
57380,2,0.0,0,1.003,131,0.0,0,observed
57381,2,0.0,1,0.853,131,1.0,0,observed
57382,2,1.0,0,0.541,132,1.0,0,observed
57383,2,0.0,1,0.911,132,1.0,0,observed
57384,2,1.0,0,0.341,133,1.0,0,observed
57385,2,0.0,1,0.765,133,1.0,0,observed
57386,2,0.0,0,0.341,134,0.0,0,observed
57387,2,0.0,1,0.753,134,0.0,0,observed
57388,2,1.0,0,0.316,135,0.0,0,observed
57389,2,0.0,1,0.417,135,0.0,0,observed
57390,2,1.0,0,0.671,136,0.0,0,observed
57391,2,1.0,1,0.841,136,0.0,0,observed
57392,2,1.0,0,0.321,137,1.0,0,observed
57393,2,0.0,1,0.991,137,0.0,0,observed
57394,2,1.0,0,0.265,138,1.0,0,observed
57395,2,1.0,1,1.316,138,1.0,0,observed
57396,2,0.0,0,0.379,139,0.0,0,observed
57397,2,1.0,1,1.678,139,0.0,0,observed
57398,2,1.0,0,0.529,140,1.0,0,observed
57399,2,1.0,1,1.122,140,1.0,0,observed
57400,2,0.0,0,0.229,141,0.0,0,observed
57401,2,0.0,1,1.154,141,0.0,0,observed
57402,2,1.0,0,1.141,142,1.0,0,observed
57403,2,1.0,1,0.792,142,1.0,0,observed
57404,2,1.0,0,0.389,143,0.0,0,observed
57405,2,0.0,1,0.428,143,1.0,0,observed
57406,2,1.0,0,0.63,144,0.0,0,observed
57407,2,1.0,1,0.404,144,1.0,0,observed
57408,2,1.0,0,1.942,145,1.0,0,observed
57409,2,0.0,1,0.404,145,0.0,0,observed
57410,2,0.0,0,1.139,146,0.0,0,observed
57411,2,1.0,1,1.291,146,1.0,0,observed
57412,2,1.0,0,1.106,147,1.0,0,observed
57413,2,0.0,1,0.927,147,1.0,0,observed
57414,2,1.0,0,1.103,148,1.0,0,observed
57415,2,1.0,1,0.574,148,1.0,0,observed
57416,2,1.0,0,2.029,149,1.0,0,observed
57417,2,1.0,1,0.342,149,1.0,0,observed
57418,2,1.0,0,0.752,150,1.0,0,observed
57419,2,1.0,1,2.341,150,1.0,0,observed
57420,2,1.0,0,0.529,151,1.0,0,observed
57421,2,0.0,1,0.439,151,0.0,0,observed
57422,2,1.0,0,0.515,152,1.0,0,observed
57423,2,1.0,1,0.417,152,1.0,0,observed
57424,2,1.0,0,0.616,153,1.0,0,observed
57425,2,1.0,1,0.503,153,1.0,0,observed
57426,2,1.0,0,0.579,154,0.0,0,observed
57427,2,1.0,1,0.891,154,1.0,0,observed
57428,2,0.0,0,0.906,155,1.0,0,observed
57429,2,1.0,1,0.468,155,1.0,0,observed
57430,2,0.0,0,1.205,156,1.0,0,observed
57431,2,1.0,1,0.737,156,0.0,0,observed
57432,2,0.0,0,0.43,157,0.0,0,observed
57433,2,0.0,1,0.442,157,0.0,0,observed
57434,2,0.0,0,0.666,158,0.0,0,observed
57435,2,1.0,1,0.53,158,1.0,0,observed
57436,2,0.0,0,0.567,159,0.0,0,observed
57437,2,1.0,1,0.453,159,1.0,0,observed
57438,2,0.0,0,0.33,160,0.0,0,observed
57439,2,1.0,1,0.428,160,1.0,0,observed
59520,3,1.0,0,0.414,1,1.0,0,observed
59521,3,0.0,1,0.92,1,1.0,0,observed
59522,3,0.0,0,1.613,2,1.0,0,observed
59523,3,0.0,1,0.403,2,0.0,0,observed
59524,3,0.0,0,0.408,3,1.0,0,observed
59525,3,1.0,1,0.511,3,1.0,0,observed
59526,3,0.0,0,0.415,4,1.0,0,observed
59527,3,0.0,1,0.829,4,0.0,0,observed
59528,3,0.0,0,1.336,5,1.0,0,observed
59529,3,1.0,1,0.404,5,0.0,0,observed
59530,3,0.0,0,0.565,6,0.0,0,observed
59531,3,0.0,1,0.963,6,1.0,0,observed
59532,3,0.0,0,1.63,7,1.0,0,observed
59533,3,0.0,1,0.44,7,1.0,0,observed
59534,3,1.0,0,1.229,8,1.0,0,observed
59535,3,0.0,1,0.495,8,1.0,0,observed
59536,3,0.0,0,1.244,9,1.0,0,observed
59537,3,0.0,1,0.398,9,0.0,0,observed
59538,3,0.0,0,0.842,10,0.0,0,observed
59539,3,0.0,1,1.365,10,1.0,0,observed
59540,3,0.0,0,1.573,11,1.0,0,observed
59541,3,0.0,1,0.956,11,0.0,0,observed
59542,3,1.0,0,0.414,12,0.0,0,observed
59543,3,1.0,1,1.497,12,0.0,0,observed
59544,3,0.0,0,0.196,13,0.0,0,observed
59545,3,0.0,1,0.819,13,0.0,0,observed
59546,3,0.0,0,0.486,14,0.0,0,observed
59547,3,1.0,1,0.97,14,1.0,0,observed
59548,3,0.0,0,0.337,15,0.0,0,observed
59549,3,1.0,1,0.522,15,0.0,0,observed
59550,3,0.0,0,0.384,16,0.0,0,observed
59551,3,1.0,1,1.088,16,1.0,0,observed
59552,3,1.0,0,0.27,17,1.0,0,observed
59553,3,1.0,1,0.652,17,1.0,0,observed
59554,3,1.0,0,0.379,18,0.0,0,observed
59555,3,1.0,1,0.439,18,1.0,0,observed
59556,3,1.0,0,0.249,19,1.0,0,observed
59557,3,0.0,1,0.479,19,1.0,0,observed
59558,3,1.0,0,1.087,20,1.0,0,observed
59559,3,0.0,1,0.892,20,0.0,0,observed
59560,3,0.0,0,0.217,21,0.0,0,observed
59561,3,1.0,1,1.092,21,1.0,0,observed
59562,3,1.0,0,0.163,22,1.0,0,observed
59563,3,1.0,1,0.895,22,1.0,0,observed
59564,3,1.0,0,0.367,23,1.0,0,observed
59565,3,1.0,1,0.309,23,1.0,0,observed
59566,3,1.0,0,0.483,24,0.0,0,observed
59567,3,1.0,1,0.362,24,0.0,0,observed
59568,3,0.0,0,0.807,25,0.0,0,observed
59569,3,1.0,1,0.967,25,1.0,0,observed
59570,3,0.0,0,0.458,26,0.0,0,observed
59571,3,1.0,1,0.341,26,1.0,0,observed
59572,3,0.0,0,0.562,27,0.0,0,observed
59573,3,1.0,1,0.259,27,1.0,0,observed
59574,3,0.0,0,0.248,28,0.0,0,observed
59575,3,1.0,1,0.376,28,1.0,0,observed
59576,3,1.0,0,1.005,29,1.0,0,observed
59577,3,1.0,1,0.405,29,1.0,0,observed
59578,3,1.0,0,1.058,30,1.0,0,observed
59579,3,1.0,1,0.438,30,1.0,0,observed
59580,3,1.0,0,0.205,31,1.0,0,observed
59581,3,1.0,1,0.326,31,1.0,0,observed
59582,3,0.0,0,0.25,32,1.0,0,observed
59583,3,1.0,1,0.72,32,1.0,0,observed
59584,3,0.0,0,0.223,33,1.0,0,observed
59585,3,1.0,1,0.53,33,0.0,0,observed
59586,3,0.0,0,0.258,34,0.0,0,observed
59587,3,0.0,1,0.303,34,0.0,0,observed
59588,3,1.0,0,0.668,35,1.0,0,observed
59589,3,1.0,1,0.437,35,1.0,0,observed
59590,3,1.0,0,0.323,36,1.0,0,observed
59591,3,1.0,1,0.376,36,0.0,0,observed
59592,3,1.0,0,0.888,37,0.0,0,observed
59593,3,1.0,1,0.426,37,1.0,0,observed
59594,3,0.0,0,0.624,38,0.0,0,observed
59595,3,0.0,1,0.261,38,0.0,0,observed
59596,3,1.0,0,0.243,39,1.0,0,observed
59597,3,1.0,1,0.286,39,1.0,0,observed
59598,3,1.0,0,0.227,40,1.0,0,observed
59599,3,1.0,1,0.756,40,1.0,0,observed
59600,3,0.0,0,0.405,41,0.0,0,observed
59601,3,0.0,1,0.342,41,1.0,0,observed
59602,3,0.0,0,0.23,42,1.0,0,observed
59603,3,0.0,1,1.045,42,1.0,0,observed
59604,3,0.0,0,0.262,43,0.0,0,observed
59605,3,0.0,1,0.375,43,0.0,0,observed
59606,3,1.0,0,0.316,44,0.0,0,observed
59607,3,1.0,1,0.381,44,1.0,0,observed
59608,3,1.0,0,0.239,45,1.0,0,observed
59609,3,1.0,1,0.54,45,1.0,0,observed
59610,3,1.0,0,0.667,46,0.0,0,observed
59611,3,1.0,1,0.335,46,1.0,0,observed
59612,3,1.0,0,0.329,47,0.0,0,observed
59613,3,1.0,1,0.31,47,0.0,0,observed
59614,3,0.0,0,0.16,48,0.0,0,observed
59615,3,1.0,1,0.498,48,1.0,0,observed
59616,3,0.0,0,0.217,49,0.0,0,observed
59617,3,1.0,1,0.326,49,1.0,0,observed
59618,3,0.0,0,0.153,50,0.0,0,observed
59619,3,1.0,1,0.33,50,0.0,0,observed
59620,3,0.0,0,0.168,51,1.0,0,observed
59621,3,1.0,1,0.267,51,1.0,0,observed
59622,3,1.0,0,0.257,52,1.0,0,observed
59623,3,1.0,1,0.462,52,0.0,0,observed
59624,3,1.0,0,0.23,53,1.0,0,observed
59625,3,0.0,1,0.646,53,0.0,0,observed
59626,3,0.0,0,0.869,54,0.0,0,observed
59627,3,1.0,1,0.453,54,1.0,0,observed
59628,3,1.0,0,0.307,55,0.0,0,observed
59629,3,1.0,1,0.344,55,1.0,0,observed
59630,3,0.0,0,0.311,56,1.0,0,observed
59631,3,1.0,1,0.361,56,1.0,0,observed
59632,3,1.0,0,0.246,57,1.0,0,observed
59633,3,1.0,1,0.394,57,0.0,0,observed
59634,3,1.0,0,0.226,58,0.0,0,observed
59635,3,0.0,1,0.232,58,1.0,0,observed
59636,3,0.0,0,0.463,59,1.0,0,observed
59637,3,0.0,1,0.312,59,0.0,0,observed
59638,3,0.0,0,0.169,60,0.0,0,observed
59639,3,1.0,1,0.874,60,1.0,0,observed
59640,3,1.0,0,0.168,61,0.0,0,observed
59641,3,1.0,1,0.367,61,0.0,0,observed
59642,3,0.0,0,0.59,62,1.0,0,observed
59643,3,1.0,1,1.084,62,1.0,0,observed
59644,3,1.0,0,0.268,63,1.0,0,observed
59645,3,1.0,1,0.689,63,1.0,0,observed
59646,3,1.0,0,1.547,64,1.0,0,observed
59647,3,1.0,1,0.472,64,1.0,0,observed
59648,3,1.0,0,0.456,65,1.0,0,observed
59649,3,1.0,1,0.415,65,0.0,0,observed
59650,3,1.0,0,0.294,66,1.0,0,observed
59651,3,1.0,1,0.891,66,1.0,0,observed
59652,3,1.0,0,0.335,67,1.0,0,observed
59653,3,1.0,1,0.938,67,0.0,0,observed
59654,3,1.0,0,0.402,68,1.0,0,observed
59655,3,1.0,1,0.847,68,1.0,0,observed
59656,3,1.0,0,0.326,69,1.0,0,observed
59657,3,1.0,1,0.414,69,1.0,0,observed
59658,3,1.0,0,0.308,70,1.0,0,observed
59659,3,1.0,1,0.58,70,1.0,0,observed
59660,3,1.0,0,0.282,71,0.0,0,observed
59661,3,1.0,1,0.53,71,1.0,0,observed
59662,3,1.0,0,0.457,72,1.0,0,observed
59663,3,1.0,1,0.728,72,0.0,0,observed
59664,3,1.0,0,0.3,73,0.0,0,observed
59665,3,1.0,1,0.318,73,1.0,0,observed
59666,3,1.0,0,0.264,74,1.0,0,observed
59667,3,1.0,1,0.406,74,1.0,0,observed
59668,3,1.0,0,0.371,75,1.0,0,observed
59669,3,1.0,1,1.888,75,1.0,0,observed
59670,3,0.0,0,0.175,76,0.0,0,observed
59671,3,1.0,1,1.55,76,1.0,0,observed
59672,3,1.0,0,0.262,77,1.0,0,observed
59673,3,1.0,1,0.386,77,1.0,0,observed
59674,3,1.0,0,0.418,78,1.0,0,observed
59675,3,1.0,1,0.569,78,0.0,0,observed
59676,3,1.0,0,0.342,79,1.0,0,observed
59677,3,1.0,1,0.785,79,1.0,0,observed
59678,3,1.0,0,0.386,80,1.0,0,observed
59679,3,1.0,1,0.521,80,1.0,0,observed
59680,3,0.0,0,0.324,81,0.0,0,observed
59681,3,0.0,1,0.316,81,0.0,0,observed
59682,3,0.0,0,0.348,82,0.0,0,observed
59683,3,0.0,1,0.293,82,1.0,0,observed
59684,3,0.0,0,0.432,83,1.0,0,observed
59685,3,0.0,1,0.688,83,0.0,0,observed
59686,3,0.0,0,0.396,84,0.0,0,observed
59687,3,0.0,1,0.807,84,1.0,0,observed
59688,3,1.0,0,0.381,85,0.0,0,observed
59689,3,0.0,1,0.271,85,1.0,0,observed
59690,3,0.0,0,0.343,86,0.0,0,observed
59691,3,0.0,1,0.576,86,0.0,0,observed
59692,3,0.0,0,0.516,87,0.0,0,observed
59693,3,0.0,1,0.359,87,1.0,0,observed
59694,3,0.0,0,0.319,88,0.0,0,observed
59695,3,0.0,1,0.307,88,0.0,0,observed
59696,3,1.0,0,0.411,89,1.0,0,observed
59697,3,1.0,1,0.305,89,0.0,0,observed
59698,3,0.0,0,0.969,90,0.0,0,observed
59699,3,1.0,1,0.297,90,1.0,0,observed
59700,3,1.0,0,0.259,91,1.0,0,observed
59701,3,1.0,1,0.288,91,1.0,0,observed
59702,3,1.0,0,0.715,92,0.0,0,observed
59703,3,1.0,1,0.352,92,1.0,0,observed
59704,3,0.0,0,1.089,93,1.0,0,observed
59705,3,1.0,1,0.307,93,0.0,0,observed
59706,3,0.0,0,0.617,94,1.0,0,observed
59707,3,0.0,1,0.238,94,1.0,0,observed
59708,3,0.0,0,0.31,95,1.0,0,observed
59709,3,0.0,1,0.397,95,0.0,0,observed
59710,3,0.0,0,0.378,96,1.0,0,observed
59711,3,1.0,1,0.903,96,0.0,0,observed
59712,3,0.0,0,0.311,97,1.0,0,observed
59713,3,1.0,1,0.556,97,1.0,0,observed
59714,3,0.0,0,0.42,98,0.0,0,observed
59715,3,1.0,1,0.289,98,1.0,0,observed
59716,3,1.0,0,0.368,99,1.0,0,observed
59717,3,1.0,1,0.482,99,1.0,0,observed
59718,3,1.0,0,0.987,100,1.0,0,observed
59719,3,1.0,1,0.364,100,0.0,0,observed
59720,3,1.0,0,0.674,101,1.0,0,observed
59721,3,1.0,1,0.282,101,0.0,0,observed
59722,3,1.0,0,0.641,102,1.0,0,observed
59723,3,1.0,1,0.39,102,0.0,0,observed
59724,3,1.0,0,0.639,103,1.0,0,observed
59725,3,0.0,1,0.3,103,1.0,0,observed
59726,3,1.0,0,0.385,104,1.0,0,observed
59727,3,0.0,1,0.377,104,0.0,0,observed
59728,3,1.0,0,0.459,105,1.0,0,observed
59729,3,0.0,1,0.632,105,0.0,0,observed
59730,3,1.0,0,0.351,106,1.0,0,observed
59731,3,1.0,1,0.546,106,1.0,0,observed
59732,3,1.0,0,0.417,107,1.0,0,observed
59733,3,1.0,1,0.316,107,1.0,0,observed
59734,3,1.0,0,0.371,108,1.0,0,observed
59735,3,1.0,1,0.356,108,1.0,0,observed
59736,3,1.0,0,0.26,109,0.0,0,observed
59737,3,1.0,1,0.364,109,1.0,0,observed
59738,3,1.0,0,0.899,110,1.0,0,observed
59739,3,1.0,1,0.338,110,1.0,0,observed
59740,3,1.0,0,1.41,111,0.0,0,observed
59741,3,1.0,1,0.304,111,1.0,0,observed
59742,3,1.0,0,0.412,112,1.0,0,observed
59743,3,1.0,1,0.32,112,1.0,0,observed
59744,3,1.0,0,0.732,113,1.0,0,observed
59745,3,1.0,1,0.283,113,1.0,0,observed
59746,3,1.0,0,1.096,114,1.0,0,observed
59747,3,1.0,1,0.41,114,1.0,0,observed
59748,3,1.0,0,0.415,115,1.0,0,observed
59749,3,0.0,1,0.252,115,0.0,0,observed
59750,3,1.0,0,0.577,116,1.0,0,observed
59751,3,1.0,1,0.321,116,1.0,0,observed
59752,3,1.0,0,1.439,117,1.0,0,observed
59753,3,1.0,1,0.281,117,1.0,0,observed
59754,3,1.0,0,1.655,118,0.0,0,observed
59755,3,1.0,1,1.519,118,1.0,0,observed
59756,3,0.0,0,0.81,119,1.0,0,observed
59757,3,1.0,1,0.288,119,1.0,0,observed
59758,3,0.0,0,0.337,120,0.0,0,observed
59759,3,1.0,1,0.271,120,1.0,0,observed
59760,3,1.0,0,0.741,121,1.0,0,observed
59761,3,0.0,1,0.234,121,0.0,0,observed
59762,3,1.0,0,0.683,122,1.0,0,observed
59763,3,0.0,1,0.264,122,1.0,0,observed
59764,3,1.0,0,0.513,123,1.0,0,observed
59765,3,0.0,1,0.564,123,0.0,0,observed
59766,3,1.0,0,0.949,124,1.0,0,observed
59767,3,0.0,1,0.434,124,1.0,0,observed
59768,3,0.0,0,0.528,125,1.0,0,observed
59769,3,0.0,1,0.471,125,1.0,0,observed
59770,3,1.0,0,1.139,126,1.0,0,observed
59771,3,1.0,1,0.714,126,0.0,0,observed
59772,3,1.0,0,0.323,127,1.0,0,observed
59773,3,0.0,1,0.276,127,1.0,0,observed
59774,3,1.0,0,0.281,128,1.0,0,observed
59775,3,0.0,1,0.279,128,0.0,0,observed
59776,3,1.0,0,0.456,129,1.0,0,observed
59777,3,0.0,1,0.366,129,0.0,0,observed
59778,3,1.0,0,0.345,130,0.0,0,observed
59779,3,0.0,1,0.366,130,0.0,0,observed
59780,3,1.0,0,0.82,131,0.0,0,observed
59781,3,0.0,1,0.418,131,0.0,0,observed
59782,3,1.0,0,0.742,132,0.0,0,observed
59783,3,0.0,1,0.308,132,1.0,0,observed
59784,3,0.0,0,0.362,133,0.0,0,observed
59785,3,0.0,1,0.362,133,0.0,0,observed
59786,3,1.0,0,0.577,134,0.0,0,observed
59787,3,0.0,1,0.317,134,1.0,0,observed
59788,3,1.0,0,0.521,135,1.0,0,observed
59789,3,0.0,1,0.518,135,1.0,0,observed
59790,3,1.0,0,0.253,136,0.0,0,observed
59791,3,0.0,1,0.255,136,0.0,0,observed
59792,3,0.0,0,0.294,137,1.0,0,observed
59793,3,0.0,1,0.242,137,1.0,0,observed
59794,3,1.0,0,1.652,138,1.0,0,observed
59795,3,0.0,1,0.588,138,1.0,0,observed
59796,3,1.0,0,0.718,139,0.0,0,observed
59797,3,0.0,1,0.48,139,0.0,0,observed
59798,3,0.0,0,0.244,140,0.0,0,observed
59799,3,0.0,1,0.695,140,1.0,0,observed
59800,3,0.0,0,0.171,141,0.0,0,observed
59801,3,0.0,1,0.375,141,1.0,0,observed
59802,3,1.0,0,0.33,142,1.0,0,observed
59803,3,0.0,1,0.341,142,0.0,0,observed
59804,3,1.0,0,0.331,143,1.0,0,observed
59805,3,1.0,1,0.557,143,1.0,0,observed
59806,3,0.0,0,0.545,144,0.0,0,observed
59807,3,0.0,1,0.589,144,0.0,0,observed
59808,3,1.0,0,0.231,145,0.0,0,observed
59809,3,0.0,1,1.106,145,0.0,0,observed
59810,3,0.0,0,0.288,146,1.0,0,observed
59811,3,0.0,1,0.401,146,0.0,0,observed
59812,3,1.0,0,0.592,147,1.0,0,observed
59813,3,1.0,1,0.586,147,1.0,0,observed
59814,3,1.0,0,0.312,148,1.0,0,observed
59815,3,1.0,1,0.281,148,1.0,0,observed
59816,3,1.0,0,0.379,149,1.0,0,observed
59817,3,1.0,1,0.325,149,1.0,0,observed
59818,3,0.0,0,0.371,150,1.0,0,observed
59819,3,1.0,1,0.365,150,1.0,0,observed
59820,3,1.0,0,0.319,151,1.0,0,observed
59821,3,1.0,1,0.272,151,1.0,0,observed
59822,3,1.0,0,0.301,152,1.0,0,observed
59823,3,1.0,1,0.242,152,1.0,0,observed
59824,3,1.0,0,0.736,153,0.0,0,observed
59825,3,1.0,1,0.251,153,1.0,0,observed
59826,3,1.0,0,0.972,154,1.0,0,observed
59827,3,1.0,1,0.316,154,1.0,0,observed
59828,3,0.0,0,0.864,155,0.0,0,observed
59829,3,1.0,1,0.329,155,1.0,0,observed
59830,3,0.0,0,0.746,156,0.0,0,observed
59831,3,1.0,1,0.315,156,1.0,0,observed
59832,3,1.0,0,0.708,157,0.0,0,observed
59833,3,1.0,1,0.318,157,1.0,0,observed
59834,3,1.0,0,0.437,158,1.0,0,observed
59835,3,1.0,1,0.261,158,1.0,0,observed
59836,3,0.0,0,0.702,159,0.0,0,observed
59837,3,1.0,1,0.411,159,1.0,0,observed
59838,3,1.0,0,0.419,160,1.0,0,observed
59839,3,1.0,1,0.318,160,1.0,0,observed
70400,4,1.0,0,0.774,1,0.0,0,observed
70401,4,1.0,1,0.536,1,1.0,0,observed
70402,4,0.0,0,1.436,2,1.0,0,observed
70403,4,0.0,1,0.548,2,1.0,0,observed
70404,4,0.0,0,0.796,3,0.0,0,observed
70405,4,0.0,1,0.389,3,0.0,0,observed
70406,4,0.0,0,1.944,4,1.0,0,observed
70407,4,1.0,1,0.406,4,1.0,0,observed
70408,4,0.0,0,0.926,5,0.0,0,observed
70409,4,1.0,1,0.392,5,1.0,0,observed
70410,4,0.0,0,1.739,6,1.0,0,observed
70411,4,1.0,1,0.419,6,0.0,0,observed
70412,4,1.0,0,0.716,7,0.0,0,observed
70413,4,0.0,1,0.488,7,0.0,0,observed
70414,4,1.0,0,1.209,8,0.0,0,observed
70415,4,1.0,1,0.673,8,1.0,0,observed
70416,4,0.0,0,1.35,9,1.0,0,observed
70417,4,1.0,1,0.335,9,0.0,0,observed
70418,4,0.0,0,1.2,10,0.0,0,observed
70419,4,0.0,1,0.409,10,1.0,0,observed
70420,4,0.0,0,0.546,11,1.0,0,observed
70421,4,0.0,1,0.365,11,0.0,0,observed
70422,4,1.0,0,0.945,12,0.0,0,observed
70423,4,1.0,1,0.828,12,0.0,0,observed
70424,4,0.0,0,0.596,13,0.0,0,observed
70425,4,0.0,1,0.343,13,0.0,0,observed
70426,4,0.0,0,0.969,14,0.0,0,observed
70427,4,1.0,1,0.19,14,1.0,0,observed
70428,4,1.0,0,1.93,15,1.0,0,observed
70429,4,1.0,1,0.38,15,1.0,0,observed
70430,4,1.0,0,1.466,16,0.0,0,observed
70431,4,1.0,1,0.36,16,0.0,0,observed
70432,4,0.0,0,1.215,17,1.0,0,observed
70433,4,1.0,1,1.803,17,0.0,0,observed
70434,4,1.0,0,1.189,18,1.0,0,observed
70435,4,0.0,1,1.649,18,0.0,0,observed
70436,4,1.0,0,1.072,19,1.0,0,observed
70437,4,1.0,1,0.381,19,1.0,0,observed
70438,4,0.0,0,0.679,20,0.0,0,observed
70439,4,1.0,1,0.372,20,0.0,0,observed
70440,4,0.0,0,0.837,21,0.0,0,observed
70441,4,0.0,1,0.377,21,1.0,0,observed
70442,4,1.0,0,1.729,22,1.0,0,observed
70443,4,1.0,1,1.234,22,1.0,0,observed
70444,4,0.0,0,0.391,23,1.0,0,observed
70445,4,1.0,1,1.804,23,1.0,0,observed
70446,4,0.0,0,0.746,24,0.0,0,observed
70447,4,1.0,1,0.732,24,1.0,0,observed
70448,4,1.0,0,0.936,25,1.0,0,observed
70449,4,1.0,1,0.35,25,1.0,0,observed
70450,4,0.0,0,1.247,26,0.0,0,observed
70451,4,1.0,1,0.383,26,1.0,0,observed
70452,4,1.0,0,0.628,27,1.0,0,observed
70453,4,1.0,1,0.378,27,0.0,0,observed
70454,4,0.0,0,1.11,28,0.0,0,observed
70455,4,0.0,1,0.338,28,0.0,0,observed
70456,4,1.0,0,0.351,29,1.0,0,observed
70457,4,1.0,1,0.61,29,0.0,0,observed
70458,4,1.0,0,0.499,30,1.0,0,observed
70459,4,0.0,1,0.381,30,1.0,0,observed
70460,4,1.0,0,0.358,31,1.0,0,observed
70461,4,0.0,1,0.421,31,0.0,0,observed
70462,4,1.0,0,0.651,32,1.0,0,observed
70463,4,1.0,1,0.348,32,1.0,0,observed
70464,4,1.0,0,0.48,33,1.0,0,observed
70465,4,1.0,1,0.391,33,1.0,0,observed
70466,4,1.0,0,0.381,34,1.0,0,observed
70467,4,1.0,1,0.348,34,1.0,0,observed
70468,4,1.0,0,0.337,35,1.0,0,observed
70469,4,1.0,1,0.391,35,1.0,0,observed
70470,4,1.0,0,0.353,36,0.0,0,observed
70471,4,1.0,1,0.36,36,1.0,0,observed
70472,4,0.0,0,0.974,37,0.0,0,observed
70473,4,1.0,1,0.368,37,1.0,0,observed
70474,4,1.0,0,0.934,38,1.0,0,observed
70475,4,1.0,1,0.414,38,1.0,0,observed
70476,4,1.0,0,0.645,39,1.0,0,observed
70477,4,1.0,1,0.353,39,1.0,0,observed
70478,4,1.0,0,0.431,40,1.0,0,observed
70479,4,1.0,1,0.36,40,1.0,0,observed
70480,4,0.0,0,0.371,41,1.0,0,observed
70481,4,0.0,1,0.345,41,0.0,0,observed
70482,4,0.0,0,0.548,42,1.0,0,observed
70483,4,0.0,1,0.361,42,0.0,0,observed
70484,4,1.0,0,0.47,43,0.0,0,observed
70485,4,0.0,1,0.406,43,1.0,0,observed
70486,4,0.0,0,0.636,44,1.0,0,observed
70487,4,0.0,1,0.363,44,1.0,0,observed
70488,4,0.0,0,0.363,45,1.0,0,observed
70489,4,0.0,1,0.473,45,1.0,0,observed
70490,4,0.0,0,0.398,46,0.0,0,observed
70491,4,0.0,1,0.331,46,1.0,0,observed
70492,4,0.0,0,0.519,47,0.0,0,observed
70493,4,0.0,1,0.367,47,1.0,0,observed
70494,4,1.0,0,0.329,48,1.0,0,observed
70495,4,0.0,1,0.325,48,0.0,0,observed
70496,4,1.0,0,0.417,49,1.0,0,observed
70497,4,0.0,1,0.313,49,0.0,0,observed
70498,4,1.0,0,0.408,50,0.0,0,observed
70499,4,0.0,1,0.346,50,1.0,0,observed
70500,4,0.0,0,1.254,51,0.0,0,observed
70501,4,0.0,1,0.414,51,0.0,0,observed
70502,4,1.0,0,0.42,52,0.0,0,observed
70503,4,1.0,1,0.821,52,0.0,0,observed
70504,4,0.0,0,0.396,53,1.0,0,observed
70505,4,0.0,1,0.275,53,0.0,0,observed
70506,4,0.0,0,0.366,54,0.0,0,observed
70507,4,1.0,1,0.339,54,1.0,0,observed
70508,4,1.0,0,0.481,55,0.0,0,observed
70509,4,1.0,1,0.474,55,1.0,0,observed
70510,4,0.0,0,0.355,56,0.0,0,observed
70511,4,1.0,1,0.656,56,0.0,0,observed
70512,4,1.0,0,0.478,57,1.0,0,observed
70513,4,0.0,1,0.456,57,0.0,0,observed
70514,4,1.0,0,0.832,58,1.0,0,observed
70515,4,1.0,1,0.354,58,0.0,0,observed
70516,4,1.0,0,0.4,59,1.0,0,observed
70517,4,0.0,1,0.395,59,0.0,0,observed
70518,4,1.0,0,0.421,60,1.0,0,observed
70519,4,1.0,1,0.41,60,1.0,0,observed
70520,4,1.0,0,0.465,61,0.0,0,observed
70521,4,1.0,1,0.412,61,1.0,0,observed
70522,4,0.0,0,0.334,62,0.0,0,observed
70523,4,1.0,1,0.383,62,1.0,0,observed
70524,4,1.0,0,0.388,63,1.0,0,observed
70525,4,1.0,1,0.466,63,1.0,0,observed
70526,4,1.0,0,0.676,64,1.0,0,observed
70527,4,1.0,1,0.356,64,1.0,0,observed
70528,4,1.0,0,0.644,65,1.0,0,observed
70529,4,1.0,1,0.395,65,1.0,0,observed
70530,4,1.0,0,0.435,66,1.0,0,observed
70531,4,1.0,1,0.539,66,1.0,0,observed
70532,4,1.0,0,0.461,67,1.0,0,observed
70533,4,1.0,1,0.424,67,1.0,0,observed
70534,4,1.0,0,0.409,68,1.0,0,observed
70535,4,1.0,1,0.458,68,0.0,0,observed
70536,4,1.0,0,0.372,69,0.0,0,observed
70537,4,1.0,1,0.982,69,1.0,0,observed
70538,4,0.0,0,0.578,70,0.0,0,observed
70539,4,1.0,1,0.685,70,1.0,0,observed
70540,4,1.0,0,0.636,71,1.0,0,observed
70541,4,1.0,1,0.998,71,0.0,0,observed
70542,4,1.0,0,0.4,72,1.0,0,observed
70543,4,0.0,1,0.886,72,0.0,0,observed
70544,4,1.0,0,0.551,73,1.0,0,observed
70545,4,1.0,1,0.468,73,1.0,0,observed
70546,4,1.0,0,2.097,74,0.0,0,observed
70547,4,1.0,1,0.576,74,1.0,0,observed
70548,4,0.0,0,0.426,75,1.0,0,observed
70549,4,1.0,1,0.395,75,1.0,0,observed
70550,4,1.0,0,0.421,76,1.0,0,observed
70551,4,1.0,1,0.679,76,1.0,0,observed
70552,4,1.0,0,0.383,77,1.0,0,observed
70553,4,1.0,1,0.614,77,1.0,0,observed
70554,4,1.0,0,0.319,78,1.0,0,observed
70555,4,1.0,1,0.402,78,0.0,0,observed
70556,4,1.0,0,0.334,79,1.0,0,observed
70557,4,1.0,1,0.342,79,1.0,0,observed
70558,4,1.0,0,0.519,80,1.0,0,observed
70559,4,1.0,1,0.399,80,1.0,0,observed
70560,4,0.0,0,0.339,81,1.0,0,observed
70561,4,0.0,1,0.318,81,1.0,0,observed
70562,4,0.0,0,0.349,82,0.0,0,observed
70563,4,0.0,1,0.341,82,0.0,0,observed
70564,4,1.0,0,0.412,83,1.0,0,observed
70565,4,0.0,1,0.549,83,1.0,0,observed
70566,4,1.0,0,0.433,84,0.0,0,observed
70567,4,0.0,1,0.465,84,0.0,0,observed
70568,4,0.0,0,0.401,85,0.0,0,observed
70569,4,0.0,1,0.358,85,0.0,0,observed
70570,4,1.0,0,0.674,86,1.0,0,observed
70571,4,1.0,1,0.42,86,0.0,0,observed
70572,4,1.0,0,1.658,87,1.0,0,observed
70573,4,0.0,1,0.923,87,0.0,0,observed
70574,4,1.0,0,0.458,88,0.0,0,observed
70575,4,1.0,1,0.293,88,1.0,0,observed
70576,4,1.0,0,1.81,89,1.0,0,observed
70577,4,1.0,1,0.509,89,1.0,0,observed
70578,4,0.0,0,1.257,90,0.0,0,observed
70579,4,1.0,1,0.5,90,1.0,0,observed
70580,4,1.0,0,0.504,91,1.0,0,observed
70581,4,1.0,1,0.412,91,0.0,0,observed
70582,4,1.0,0,0.48,92,0.0,0,observed
70583,4,1.0,1,0.853,92,1.0,0,observed
70584,4,0.0,0,0.32,93,0.0,0,observed
70585,4,1.0,1,0.252,93,1.0,0,observed
70586,4,1.0,0,0.747,94,1.0,0,observed
70587,4,1.0,1,0.357,94,1.0,0,observed
70588,4,1.0,0,0.327,95,0.0,0,observed
70589,4,1.0,1,0.421,95,1.0,0,observed
70590,4,0.0,0,0.709,96,0.0,0,observed
70591,4,1.0,1,0.374,96,1.0,0,observed
70592,4,1.0,0,0.831,97,0.0,0,observed
70593,4,1.0,1,0.357,97,1.0,0,observed
70594,4,0.0,0,0.377,98,1.0,0,observed
70595,4,1.0,1,0.326,98,1.0,0,observed
70596,4,0.0,0,0.396,99,0.0,0,observed
70597,4,1.0,1,0.36,99,0.0,0,observed
70598,4,1.0,0,0.345,100,1.0,0,observed
70599,4,0.0,1,0.377,100,1.0,0,observed
70600,4,1.0,0,0.619,101,1.0,0,observed
70601,4,0.0,1,0.403,101,0.0,0,observed
70602,4,0.0,0,0.505,102,1.0,0,observed
70603,4,0.0,1,0.628,102,1.0,0,observed
70604,4,0.0,0,1.012,103,0.0,0,observed
70605,4,0.0,1,0.311,103,1.0,0,observed
70606,4,1.0,0,0.915,104,1.0,0,observed
70607,4,0.0,1,0.346,104,1.0,0,observed
70608,4,0.0,0,0.349,105,0.0,0,observed
70609,4,0.0,1,0.44,105,0.0,0,observed
70610,4,1.0,0,0.382,106,1.0,0,observed
70611,4,0.0,1,1.179,106,1.0,0,observed
70612,4,1.0,0,0.345,107,0.0,0,observed
70613,4,0.0,1,0.476,107,1.0,0,observed
70614,4,1.0,0,0.579,108,0.0,0,observed
70615,4,0.0,1,0.722,108,1.0,0,observed
70616,4,0.0,0,0.465,109,0.0,0,observed
70617,4,0.0,1,0.322,109,0.0,0,observed
70618,4,0.0,0,0.42,110,1.0,0,observed
70619,4,0.0,1,0.769,110,0.0,0,observed
70620,4,0.0,0,0.43,111,1.0,0,observed
70621,4,0.0,1,0.66,111,0.0,0,observed
70622,4,0.0,0,0.437,112,0.0,0,observed
70623,4,1.0,1,0.373,112,1.0,0,observed
70624,4,1.0,0,0.995,113,1.0,0,observed
70625,4,1.0,1,0.382,113,1.0,0,observed
70626,4,1.0,0,0.697,114,1.0,0,observed
70627,4,1.0,1,0.424,114,1.0,0,observed
70628,4,1.0,0,0.98,115,1.0,0,observed
70629,4,1.0,1,0.399,115,1.0,0,observed
70630,4,1.0,0,0.356,116,1.0,0,observed
70631,4,1.0,1,0.385,116,1.0,0,observed
70632,4,1.0,0,0.411,117,1.0,0,observed
70633,4,1.0,1,0.345,117,1.0,0,observed
70634,4,1.0,0,0.514,118,1.0,0,observed
70635,4,1.0,1,0.462,118,1.0,0,observed
70636,4,1.0,0,0.402,119,1.0,0,observed
70637,4,1.0,1,0.367,119,1.0,0,observed
70638,4,1.0,0,0.406,120,1.0,0,observed
70639,4,1.0,1,0.529,120,1.0,0,observed
70640,4,0.0,0,0.534,121,0.0,0,observed
70641,4,0.0,1,0.428,121,0.0,0,observed
70642,4,1.0,0,0.679,122,1.0,0,observed
70643,4,0.0,1,0.319,122,1.0,0,observed
70644,4,1.0,0,0.518,123,0.0,0,observed
70645,4,0.0,1,0.403,123,1.0,0,observed
70646,4,0.0,0,0.572,124,1.0,0,observed
70647,4,0.0,1,0.382,124,0.0,0,observed
70648,4,0.0,0,0.698,125,1.0,0,observed
70649,4,0.0,1,0.804,125,1.0,0,observed
70650,4,0.0,0,0.258,126,1.0,0,observed
70651,4,0.0,1,0.339,126,1.0,0,observed
70652,4,0.0,0,0.243,127,1.0,0,observed
70653,4,0.0,1,0.326,127,0.0,0,observed
70654,4,0.0,0,0.36,128,0.0,0,observed
70655,4,0.0,1,0.577,128,0.0,0,observed
70656,4,1.0,0,1.456,129,0.0,0,observed
70657,4,1.0,1,0.332,129,1.0,0,observed
70658,4,0.0,0,0.342,130,0.0,0,observed
70659,4,1.0,1,0.315,130,1.0,0,observed
70660,4,1.0,0,0.829,131,0.0,0,observed
70661,4,1.0,1,0.758,131,0.0,0,observed
70662,4,0.0,0,0.633,132,1.0,0,observed
70663,4,0.0,1,1.84,132,1.0,0,observed
70664,4,0.0,0,0.384,133,0.0,0,observed
70665,4,0.0,1,0.243,133,0.0,0,observed
70666,4,1.0,0,0.324,134,0.0,0,observed
70667,4,1.0,1,0.328,134,1.0,0,observed
70668,4,0.0,0,0.331,135,1.0,0,observed
70669,4,1.0,1,0.428,135,0.0,0,observed
70670,4,0.0,0,0.373,136,0.0,0,observed
70671,4,0.0,1,0.517,136,0.0,0,observed
70672,4,1.0,0,0.281,137,1.0,0,observed
70673,4,1.0,1,0.324,137,0.0,0,observed
70674,4,0.0,0,0.203,138,0.0,0,observed
70675,4,0.0,1,0.199,138,0.0,0,observed
70676,4,1.0,0,0.341,139,0.0,0,observed
70677,4,1.0,1,0.348,139,0.0,0,observed
70678,4,0.0,0,0.398,140,0.0,0,observed
70679,4,0.0,1,0.312,140,1.0,0,observed
70680,4,1.0,0,0.785,141,1.0,0,observed
70681,4,0.0,1,0.365,141,0.0,0,observed
70682,4,1.0,0,0.351,142,0.0,0,observed
70683,4,1.0,1,0.901,142,1.0,0,observed
70684,4,0.0,0,0.544,143,0.0,0,observed
70685,4,1.0,1,0.401,143,0.0,0,observed
70686,4,1.0,0,0.697,144,1.0,0,observed
70687,4,0.0,1,0.392,144,0.0,0,observed
70688,4,1.0,0,0.375,145,1.0,0,observed
70689,4,1.0,1,0.393,145,1.0,0,observed
70690,4,1.0,0,0.752,146,1.0,0,observed
70691,4,1.0,1,0.331,146,1.0,0,observed
70692,4,1.0,0,0.491,147,1.0,0,observed
70693,4,1.0,1,0.413,147,1.0,0,observed
70694,4,1.0,0,0.432,148,1.0,0,observed
70695,4,1.0,1,0.493,148,1.0,0,observed
70696,4,1.0,0,0.492,149,1.0,0,observed
70697,4,1.0,1,0.437,149,1.0,0,observed
70698,4,1.0,0,0.42,150,1.0,0,observed
70699,4,1.0,1,0.382,150,1.0,0,observed
70700,4,1.0,0,0.271,151,1.0,0,observed
70701,4,1.0,1,0.415,151,1.0,0,observed
70702,4,1.0,0,0.412,152,1.0,0,observed
70703,4,1.0,1,0.362,152,1.0,0,observed
70704,4,1.0,0,0.396,153,1.0,0,observed
70705,4,1.0,1,0.585,153,1.0,0,observed
70706,4,1.0,0,0.206,154,1.0,0,observed
70707,4,1.0,1,0.376,154,1.0,0,observed
70708,4,1.0,0,0.351,155,1.0,0,observed
70709,4,1.0,1,0.539,155,1.0,0,observed
70710,4,1.0,0,0.365,156,1.0,0,observed
70711,4,1.0,1,0.271,156,1.0,0,observed
70712,4,1.0,0,0.359,157,1.0,0,observed
70713,4,1.0,1,0.664,157,1.0,0,observed
70714,4,1.0,0,0.534,158,1.0,0,observed
70715,4,1.0,1,0.621,158,1.0,0,observed
70716,4,1.0,0,0.432,159,1.0,0,observed
70717,4,1.0,1,0.431,159,1.0,0,observed
70718,4,1.0,0,0.408,160,1.0,0,observed
70719,4,1.0,1,0.425,160,0.0,0,observed
74400,5,0.0,0,0.631,1,0.0,0,observed
74401,5,1.0,1,2.022,1,1.0,0,observed
74402,5,1.0,0,0.338,2,1.0,0,observed
74403,5,1.0,1,2.021,2,0.0,0,observed
74404,5,1.0,0,0.461,3,0.0,0,observed
74405,5,0.0,1,1.628,3,1.0,0,observed
74406,5,0.0,0,0.61,4,1.0,0,observed
74407,5,0.0,1,1.424,4,1.0,0,observed
74408,5,0.0,0,0.381,5,0.0,0,observed
74409,5,0.0,1,0.587,5,0.0,0,observed
74410,5,1.0,0,0.49,6,1.0,0,observed
74411,5,0.0,1,1.743,6,1.0,0,observed
74412,5,1.0,0,1.155,7,1.0,0,observed
74413,5,1.0,1,0.873,7,0.0,0,observed
74414,5,1.0,0,0.645,8,1.0,0,observed
74415,5,1.0,1,1.292,8,1.0,0,observed
74416,5,1.0,0,0.393,9,1.0,0,observed
74417,5,0.0,1,1.162,9,0.0,0,observed
74418,5,1.0,0,0.347,10,1.0,0,observed
74419,5,1.0,1,0.762,10,1.0,0,observed
74420,5,1.0,0,0.403,11,1.0,0,observed
74421,5,1.0,1,1.596,11,0.0,0,observed
74422,5,1.0,0,0.31,12,1.0,0,observed
74423,5,1.0,1,0.83,12,1.0,0,observed
74424,5,1.0,0,0.532,13,1.0,0,observed
74425,5,0.0,1,1.199,13,0.0,0,observed
74426,5,1.0,0,0.405,14,1.0,0,observed
74427,5,1.0,1,1.353,14,1.0,0,observed
74428,5,1.0,0,0.316,15,0.0,0,observed
74429,5,0.0,1,1.546,15,0.0,0,observed
74430,5,0.0,0,0.703,16,1.0,0,observed
74431,5,1.0,1,1.604,16,0.0,0,observed
74432,5,0.0,0,0.414,17,1.0,0,observed
74433,5,1.0,1,0.949,17,0.0,0,observed
74434,5,0.0,0,0.355,18,1.0,0,observed
74435,5,0.0,1,1.252,18,1.0,0,observed
74436,5,0.0,0,0.305,19,0.0,0,observed
74437,5,0.0,1,1.051,19,0.0,0,observed
74438,5,1.0,0,0.726,20,1.0,0,observed
74439,5,1.0,1,1.637,20,1.0,0,observed
74440,5,1.0,0,0.348,21,1.0,0,observed
74441,5,0.0,1,1.146,21,0.0,0,observed
74442,5,1.0,0,0.344,22,0.0,0,observed
74443,5,1.0,1,0.707,22,0.0,0,observed
74444,5,0.0,0,0.968,23,0.0,0,observed
74445,5,1.0,1,0.281,23,1.0,0,observed
74446,5,1.0,0,1.094,24,0.0,0,observed
74447,5,0.0,1,0.547,24,0.0,0,observed
74448,5,1.0,0,1.014,25,1.0,0,observed
74449,5,1.0,1,0.407,25,0.0,0,observed
74450,5,1.0,0,0.524,26,1.0,0,observed
74451,5,1.0,1,1.012,26,0.0,0,observed
74452,5,1.0,0,0.361,27,1.0,0,observed
74453,5,0.0,1,2.478,27,0.0,0,observed
74454,5,1.0,0,0.361,28,1.0,0,observed
74455,5,1.0,1,0.815,28,1.0,0,observed
74456,5,1.0,0,0.679,29,0.0,0,observed
74457,5,1.0,1,0.797,29,1.0,0,observed
74458,5,0.0,0,1.325,30,0.0,0,observed
74459,5,1.0,1,1.211,30,1.0,0,observed
74460,5,0.0,0,0.73,31,0.0,0,observed
74461,5,1.0,1,0.632,31,1.0,0,observed
74462,5,0.0,0,0.62,32,1.0,0,observed
74463,5,1.0,1,0.416,32,1.0,0,observed
74464,5,0.0,0,0.286,33,0.0,0,observed
74465,5,1.0,1,2.18,33,1.0,0,observed
74466,5,1.0,0,1.489,34,0.0,0,observed
74467,5,1.0,1,0.753,34,1.0,0,observed
74468,5,0.0,0,0.832,35,1.0,0,observed
74469,5,1.0,1,0.477,35,1.0,0,observed
74470,5,1.0,0,0.373,36,1.0,0,observed
74471,5,1.0,1,0.444,36,1.0,0,observed
74472,5,1.0,0,1.34,37,1.0,0,observed
74473,5,1.0,1,0.301,37,1.0,0,observed
74474,5,1.0,0,0.456,38,1.0,0,observed
74475,5,1.0,1,0.318,38,1.0,0,observed
74476,5,1.0,0,0.482,39,1.0,0,observed
74477,5,1.0,1,0.351,39,1.0,0,observed
74478,5,0.0,0,0.587,40,0.0,0,observed
74479,5,1.0,1,0.319,40,1.0,0,observed
74480,5,1.0,0,0.913,41,1.0,0,observed
74481,5,0.0,1,0.424,41,1.0,0,observed
74482,5,1.0,0,0.513,42,1.0,0,observed
74483,5,0.0,1,0.312,42,1.0,0,observed
74484,5,1.0,0,0.712,43,1.0,0,observed
74485,5,0.0,1,0.329,43,0.0,0,observed
74486,5,1.0,0,1.778,44,0.0,0,observed
74487,5,0.0,1,0.779,44,1.0,0,observed
74488,5,0.0,0,0.534,45,0.0,0,observed
74489,5,0.0,1,0.57,45,1.0,0,observed
74490,5,1.0,0,0.989,46,1.0,0,observed
74491,5,0.0,1,0.465,46,1.0,0,observed
74492,5,0.0,0,1.023,47,0.0,0,observed
74493,5,0.0,1,0.417,47,0.0,0,observed
74494,5,1.0,0,0.551,48,0.0,0,observed
74495,5,0.0,1,0.327,48,0.0,0,observed
74496,5,1.0,0,0.565,49,1.0,0,observed
74497,5,1.0,1,0.616,49,1.0,0,observed
74498,5,1.0,0,0.974,50,1.0,0,observed
74499,5,1.0,1,0.422,50,1.0,0,observed
74500,5,1.0,0,1.249,51,0.0,0,observed
74501,5,1.0,1,0.381,51,1.0,0,observed
74502,5,0.0,0,1.445,52,1.0,0,observed
74503,5,1.0,1,0.419,52,1.0,0,observed
74504,5,0.0,0,0.925,53,1.0,0,observed
74505,5,1.0,1,0.439,53,1.0,0,observed
74506,5,0.0,0,0.896,54,0.0,0,observed
74507,5,1.0,1,0.452,54,0.0,0,observed
74508,5,1.0,0,1.031,55,0.0,0,observed
74509,5,0.0,1,0.408,55,0.0,0,observed
74510,5,1.0,0,0.409,56,1.0,0,observed
74511,5,0.0,1,0.903,56,0.0,0,observed
74512,5,1.0,0,0.297,57,1.0,0,observed
74513,5,1.0,1,1.106,57,1.0,0,observed
74514,5,1.0,0,0.283,58,0.0,0,observed
74515,5,1.0,1,0.589,58,1.0,0,observed
74516,5,1.0,0,0.485,59,0.0,0,observed
74517,5,1.0,1,0.455,59,1.0,0,observed
74518,5,0.0,0,0.477,60,0.0,0,observed
74519,5,1.0,1,0.544,60,1.0,0,observed
74520,5,1.0,0,0.294,61,1.0,0,observed
74521,5,1.0,1,0.781,61,0.0,0,observed
74522,5,1.0,0,0.379,62,1.0,0,observed
74523,5,0.0,1,1.174,62,1.0,0,observed
74524,5,1.0,0,0.786,63,1.0,0,observed
74525,5,0.0,1,1.213,63,0.0,0,observed
74526,5,1.0,0,0.716,64,1.0,0,observed
74527,5,0.0,1,0.621,64,0.0,0,observed
74528,5,0.0,0,0.598,65,1.0,0,observed
74529,5,1.0,1,1.127,65,0.0,0,observed
74530,5,0.0,0,0.509,66,1.0,0,observed
74531,5,1.0,1,0.742,66,1.0,0,observed
74532,5,0.0,0,1.328,67,1.0,0,observed
74533,5,1.0,1,0.444,67,1.0,0,observed
74534,5,1.0,0,0.774,68,1.0,0,observed
74535,5,1.0,1,1.109,68,0.0,0,observed
74536,5,1.0,0,0.347,69,1.0,0,observed
74537,5,0.0,1,2.131,69,0.0,0,observed
74538,5,1.0,0,0.471,70,1.0,0,observed
74539,5,0.0,1,1.324,70,0.0,0,observed
74540,5,1.0,0,1.057,71,1.0,0,observed
74541,5,1.0,1,0.617,71,1.0,0,observed
74542,5,0.0,0,0.283,72,1.0,0,observed
74543,5,1.0,1,0.734,72,1.0,0,observed
74544,5,0.0,0,0.364,73,0.0,0,observed
74545,5,1.0,1,0.416,73,1.0,0,observed
74546,5,1.0,0,1.691,74,1.0,0,observed
74547,5,0.0,1,1.428,74,0.0,0,observed
74548,5,0.0,0,0.666,75,0.0,0,observed
74549,5,1.0,1,0.74,75,1.0,0,observed
74550,5,1.0,0,0.941,76,1.0,0,observed
74551,5,1.0,1,0.333,76,1.0,0,observed
74552,5,1.0,0,0.624,77,1.0,0,observed
74553,5,1.0,1,0.458,77,1.0,0,observed
74554,5,1.0,0,0.322,78,1.0,0,observed
74555,5,1.0,1,1.643,78,1.0,0,observed
74556,5,1.0,0,0.421,79,1.0,0,observed
74557,5,1.0,1,0.929,79,0.0,0,observed
74558,5,0.0,0,0.448,80,0.0,0,observed
74559,5,0.0,1,0.876,80,0.0,0,observed
74560,5,0.0,0,1.767,81,1.0,0,observed
74561,5,0.0,1,1.041,81,0.0,0,observed
74562,5,0.0,0,0.624,82,0.0,0,observed
74563,5,0.0,1,0.919,82,1.0,0,observed
74564,5,1.0,0,1.449,83,0.0,0,observed
74565,5,1.0,1,0.52,83,1.0,0,observed
74566,5,0.0,0,0.797,84,0.0,0,observed
74567,5,1.0,1,0.614,84,0.0,0,observed
74568,5,0.0,0,0.501,85,0.0,0,observed
74569,5,1.0,1,0.608,85,0.0,0,observed
74570,5,1.0,0,0.205,86,0.0,0,observed
74571,5,0.0,1,0.613,86,0.0,0,observed
74572,5,0.0,0,1.089,87,0.0,0,observed
74573,5,1.0,1,1.142,87,1.0,0,observed
74574,5,1.0,0,0.346,88,1.0,0,observed
74575,5,1.0,1,0.43,88,1.0,0,observed
74576,5,1.0,0,0.341,89,1.0,0,observed
74577,5,1.0,1,0.304,89,0.0,0,observed
74578,5,1.0,0,0.361,90,1.0,0,observed
74579,5,0.0,1,1.435,90,0.0,0,observed
74580,5,1.0,0,0.316,91,1.0,0,observed
74581,5,1.0,1,1.134,91,1.0,0,observed
74582,5,1.0,0,0.291,92,0.0,0,observed
74583,5,1.0,1,0.382,92,1.0,0,observed
74584,5,1.0,0,0.955,93,0.0,0,observed
74585,5,0.0,1,0.236,93,0.0,0,observed
74586,5,1.0,0,0.847,94,1.0,0,observed
74587,5,0.0,1,1.208,94,1.0,0,observed
74588,5,1.0,0,0.58,95,1.0,0,observed
74589,5,0.0,1,0.55,95,0.0,0,observed
74590,5,1.0,0,0.293,96,0.0,0,observed
74591,5,0.0,1,1.116,96,1.0,0,observed
74592,5,1.0,0,0.555,97,1.0,0,observed
74593,5,1.0,1,1.198,97,0.0,0,observed
74594,5,1.0,0,0.707,98,1.0,0,observed
74595,5,0.0,1,0.838,98,0.0,0,observed
74596,5,0.0,0,0.44,99,0.0,0,observed
74597,5,1.0,1,1.882,99,0.0,0,observed
74598,5,0.0,0,1.282,100,1.0,0,observed
74599,5,1.0,1,0.602,100,1.0,0,observed
74600,5,1.0,0,1.01,101,0.0,0,observed
74601,5,1.0,1,0.442,101,0.0,0,observed
74602,5,1.0,0,1.304,102,1.0,0,observed
74603,5,0.0,1,1.322,102,1.0,0,observed
74604,5,0.0,0,1.122,103,1.0,0,observed
74605,5,1.0,1,0.927,103,1.0,0,observed
74606,5,1.0,0,0.98,104,1.0,0,observed
74607,5,1.0,1,0.52,104,1.0,0,observed
74608,5,1.0,0,1.24,105,1.0,0,observed
74609,5,1.0,1,0.728,105,1.0,0,observed
74610,5,0.0,0,0.798,106,0.0,0,observed
74611,5,1.0,1,1.061,106,0.0,0,observed
74612,5,0.0,0,1.661,107,1.0,0,observed
74613,5,0.0,1,0.446,107,0.0,0,observed
74614,5,1.0,0,0.815,108,1.0,0,observed
74615,5,1.0,1,0.449,108,1.0,0,observed
74616,5,1.0,0,0.596,109,1.0,0,observed
74617,5,1.0,1,0.471,109,1.0,0,observed
74618,5,1.0,0,0.972,110,0.0,0,observed
74619,5,1.0,1,1.258,110,1.0,0,observed
74620,5,0.0,0,0.571,111,0.0,0,observed
74621,5,0.0,1,0.212,111,1.0,0,observed
74622,5,1.0,0,0.395,112,1.0,0,observed
74623,5,1.0,1,0.442,112,1.0,0,observed
74624,5,0.0,0,1.211,113,0.0,0,observed
74625,5,1.0,1,0.99,113,1.0,0,observed
74626,5,0.0,0,0.502,114,0.0,0,observed
74627,5,1.0,1,1.255,114,1.0,0,observed
74628,5,0.0,0,0.415,115,0.0,0,observed
74629,5,1.0,1,0.716,115,1.0,0,observed
74630,5,1.0,0,1.502,116,1.0,0,observed
74631,5,1.0,1,1.298,116,1.0,0,observed
74632,5,1.0,0,0.321,117,0.0,0,observed
74633,5,0.0,1,0.803,117,0.0,0,observed
74634,5,1.0,0,1.33,118,1.0,0,observed
74635,5,1.0,1,0.541,118,1.0,0,observed
74636,5,0.0,0,0.601,119,0.0,0,observed
74637,5,1.0,1,0.578,119,1.0,0,observed
74638,5,1.0,0,0.396,120,1.0,0,observed
74639,5,1.0,1,0.579,120,1.0,0,observed
74640,5,0.0,0,0.316,121,1.0,0,observed
74641,5,0.0,1,0.659,121,0.0,0,observed
74642,5,0.0,0,0.587,122,0.0,0,observed
74643,5,0.0,1,0.38,122,1.0,0,observed
74644,5,0.0,0,0.679,123,1.0,0,observed
74645,5,0.0,1,0.594,123,0.0,0,observed
74646,5,1.0,0,1.407,124,1.0,0,observed
74647,5,0.0,1,0.844,124,0.0,0,observed
74648,5,1.0,0,0.35,125,1.0,0,observed
74649,5,0.0,1,0.561,125,1.0,0,observed
74650,5,1.0,0,0.439,126,0.0,0,observed
74651,5,1.0,1,0.733,126,1.0,0,observed
74652,5,1.0,0,0.502,127,0.0,0,observed
74653,5,1.0,1,0.866,127,1.0,0,observed
74654,5,0.0,0,0.583,128,0.0,0,observed
74655,5,0.0,1,0.752,128,0.0,0,observed
74656,5,1.0,0,0.565,129,1.0,0,observed
74657,5,1.0,1,0.563,129,1.0,0,observed
74658,5,1.0,0,0.61,130,1.0,0,observed
74659,5,1.0,1,0.58,130,0.0,0,observed
74660,5,1.0,0,0.591,131,1.0,0,observed
74661,5,1.0,1,0.512,131,1.0,0,observed
74662,5,1.0,0,0.657,132,1.0,0,observed
74663,5,0.0,1,0.505,132,1.0,0,observed
74664,5,1.0,0,0.633,133,0.0,0,observed
74665,5,1.0,1,0.825,133,1.0,0,observed
74666,5,1.0,0,0.513,134,0.0,0,observed
74667,5,1.0,1,0.399,134,1.0,0,observed
74668,5,0.0,0,0.541,135,1.0,0,observed
74669,5,1.0,1,0.445,135,0.0,0,observed
74670,5,0.0,0,0.836,136,0.0,0,observed
74671,5,1.0,1,0.39,136,0.0,0,observed
74672,5,0.0,0,0.53,137,0.0,0,observed
74673,5,1.0,1,0.492,137,0.0,0,observed
74674,5,1.0,0,0.555,138,1.0,0,observed
74675,5,0.0,1,1.115,138,0.0,0,observed
74676,5,1.0,0,0.657,139,1.0,0,observed
74677,5,1.0,1,0.506,139,1.0,0,observed
74678,5,1.0,0,0.966,140,1.0,0,observed
74679,5,1.0,1,0.387,140,0.0,0,observed
74680,5,1.0,0,0.299,141,1.0,0,observed
74681,5,1.0,1,0.431,141,0.0,0,observed
74682,5,0.0,0,0.679,142,0.0,0,observed
74683,5,0.0,1,0.57,142,1.0,0,observed
74684,5,0.0,0,0.537,143,0.0,0,observed
74685,5,0.0,1,0.519,143,1.0,0,observed
74686,5,1.0,0,0.919,144,1.0,0,observed
74687,5,1.0,1,0.665,144,1.0,0,observed
74688,5,1.0,0,0.409,145,1.0,0,observed
74689,5,1.0,1,0.837,145,1.0,0,observed
74690,5,0.0,0,0.736,146,0.0,0,observed
74691,5,1.0,1,0.365,146,0.0,0,observed
74692,5,0.0,0,0.178,147,1.0,0,observed
74693,5,1.0,1,1.062,147,1.0,0,observed
74694,5,0.0,0,0.244,148,0.0,0,observed
74695,5,1.0,1,0.705,148,1.0,0,observed
74696,5,0.0,0,0.251,149,0.0,0,observed
74697,5,1.0,1,0.474,149,1.0,0,observed
74698,5,1.0,0,0.54,150,1.0,0,observed
74699,5,1.0,1,1.212,150,1.0,0,observed
74700,5,1.0,0,0.308,151,0.0,0,observed
74701,5,1.0,1,0.796,151,1.0,0,observed
74702,5,1.0,0,0.424,152,0.0,0,observed
74703,5,1.0,1,0.49,152,1.0,0,observed
74704,5,1.0,0,0.786,153,0.0,0,observed
74705,5,1.0,1,1.402,153,1.0,0,observed
74706,5,1.0,0,0.424,154,1.0,0,observed
74707,5,1.0,1,0.775,154,1.0,0,observed
74708,5,1.0,0,0.492,155,1.0,0,observed
74709,5,1.0,1,0.674,155,1.0,0,observed
74710,5,1.0,0,0.331,156,0.0,0,observed
74711,5,1.0,1,0.609,156,1.0,0,observed
74712,5,0.0,0,0.71,157,0.0,0,observed
74713,5,1.0,1,0.435,157,1.0,0,observed
74714,5,1.0,0,0.738,158,1.0,0,observed
74715,5,1.0,1,0.503,158,1.0,0,observed
74716,5,1.0,0,0.55,159,1.0,0,observed
74717,5,1.0,1,0.748,159,1.0,0,observed
74718,5,1.0,0,1.013,160,1.0,0,observed
74719,5,1.0,1,0.601,160,1.0,0,observed
75040,6,1.0,0,0.64,1,1.0,0,observed
75041,6,0.0,1,1.102,1,0.0,0,observed
75042,6,1.0,0,0.312,2,0.0,0,observed
75043,6,1.0,1,1.46,2,1.0,0,observed
75044,6,1.0,0,0.521,3,0.0,0,observed
75045,6,1.0,1,1.673,3,1.0,0,observed
75046,6,0.0,0,0.873,4,1.0,0,observed
75047,6,1.0,1,0.585,4,1.0,0,observed
75048,6,0.0,0,0.715,5,0.0,0,observed
75049,6,1.0,1,0.469,5,1.0,0,observed
75050,6,1.0,0,0.504,6,1.0,0,observed
75051,6,1.0,1,0.664,6,1.0,0,observed
75052,6,1.0,0,0.578,7,0.0,0,observed
75053,6,1.0,1,0.467,7,0.0,0,observed
75054,6,0.0,0,0.697,8,0.0,0,observed
75055,6,0.0,1,0.387,8,1.0,0,observed
75056,6,1.0,0,0.742,9,0.0,0,observed
75057,6,0.0,1,0.42,9,0.0,0,observed
75058,6,0.0,0,0.761,10,0.0,0,observed
75059,6,1.0,1,0.547,10,0.0,0,observed
75060,6,1.0,0,0.995,11,1.0,0,observed
75061,6,1.0,1,0.67,11,1.0,0,observed
75062,6,1.0,0,0.544,12,0.0,0,observed
75063,6,1.0,1,1.083,12,0.0,0,observed
75064,6,1.0,0,0.732,13,1.0,0,observed
75065,6,1.0,1,0.461,13,0.0,0,observed
75066,6,1.0,0,1.102,14,0.0,0,observed
75067,6,1.0,1,1.444,14,0.0,0,observed
75068,6,0.0,0,1.326,15,0.0,0,observed
75069,6,0.0,1,1.357,15,1.0,0,observed
75070,6,1.0,0,0.537,16,1.0,0,observed
75071,6,0.0,1,0.617,16,0.0,0,observed
75072,6,1.0,0,0.353,17,1.0,0,observed
75073,6,1.0,1,0.391,17,0.0,0,observed
75074,6,1.0,0,1.207,18,1.0,0,observed
75075,6,0.0,1,1.574,18,1.0,0,observed
75076,6,1.0,0,0.436,19,1.0,0,observed
75077,6,0.0,1,0.731,19,0.0,0,observed
75078,6,1.0,0,0.629,20,0.0,0,observed
75079,6,1.0,1,2.352,20,0.0,0,observed
75080,6,0.0,0,0.425,21,0.0,0,observed
75081,6,0.0,1,1.244,21,0.0,0,observed
75082,6,1.0,0,0.439,22,0.0,0,observed
75083,6,1.0,1,1.436,22,0.0,0,observed
75084,6,0.0,0,0.538,23,1.0,0,observed
75085,6,1.0,1,1.539,23,1.0,0,observed
75086,6,0.0,0,0.252,24,0.0,0,observed
75087,6,1.0,1,0.859,24,1.0,0,observed
75088,6,1.0,0,0.402,25,1.0,0,observed
75089,6,1.0,1,0.695,25,0.0,0,observed
75090,6,1.0,0,0.303,26,1.0,0,observed
75091,6,1.0,1,1.196,26,1.0,0,observed
75092,6,1.0,0,0.378,27,1.0,0,observed
75093,6,0.0,1,1.029,27,0.0,0,observed
75094,6,1.0,0,0.446,28,1.0,0,observed
75095,6,0.0,1,0.332,28,0.0,0,observed
75096,6,1.0,0,0.642,29,1.0,0,observed
75097,6,0.0,1,0.54,29,1.0,0,observed
75098,6,1.0,0,0.333,30,1.0,0,observed
75099,6,0.0,1,0.648,30,0.0,0,observed
75100,6,1.0,0,0.33,31,1.0,0,observed
75101,6,1.0,1,1.039,31,1.0,0,observed
75102,6,1.0,0,0.315,32,1.0,0,observed
75103,6,1.0,1,0.262,32,1.0,0,observed
75104,6,1.0,0,0.285,33,1.0,0,observed
75105,6,1.0,1,0.686,33,1.0,0,observed
75106,6,1.0,0,0.206,34,1.0,0,observed
75107,6,1.0,1,0.337,34,1.0,0,observed
75108,6,1.0,0,0.341,35,1.0,0,observed
75109,6,1.0,1,0.315,35,1.0,0,observed
75110,6,1.0,0,0.232,36,0.0,0,observed
75111,6,1.0,1,0.34,36,1.0,0,observed
75112,6,0.0,0,0.33,37,0.0,0,observed
75113,6,1.0,1,0.384,37,1.0,0,observed
75114,6,1.0,0,0.567,38,1.0,0,observed
75115,6,1.0,1,0.262,38,1.0,0,observed
75116,6,1.0,0,0.218,39,1.0,0,observed
75117,6,1.0,1,0.335,39,1.0,0,observed
75118,6,1.0,0,0.322,40,1.0,0,observed
75119,6,1.0,1,0.438,40,1.0,0,observed
75120,6,0.0,0,0.405,41,0.0,0,observed
75121,6,0.0,1,0.263,41,1.0,0,observed
75122,6,1.0,0,0.565,42,0.0,0,observed
75123,6,0.0,1,0.25,42,1.0,0,observed
75124,6,0.0,0,0.496,43,1.0,0,observed
75125,6,0.0,1,0.627,43,0.0,0,observed
75126,6,0.0,0,0.375,44,0.0,0,observed
75127,6,1.0,1,0.434,44,1.0,0,observed
75128,6,1.0,0,0.396,45,0.0,0,observed
75129,6,1.0,1,0.353,45,1.0,0,observed
75130,6,0.0,0,0.486,46,0.0,0,observed
75131,6,1.0,1,0.376,46,0.0,0,observed
75132,6,1.0,0,0.473,47,0.0,0,observed
75133,6,0.0,1,0.285,47,0.0,0,observed
75134,6,0.0,0,0.519,48,0.0,0,observed
75135,6,1.0,1,0.738,48,1.0,0,observed
75136,6,1.0,0,1.688,49,1.0,0,observed
75137,6,1.0,1,0.347,49,1.0,0,observed
75138,6,1.0,0,0.419,50,1.0,0,observed
75139,6,1.0,1,0.281,50,1.0,0,observed
75140,6,1.0,0,0.48,51,1.0,0,observed
75141,6,1.0,1,0.305,51,0.0,0,observed
75142,6,1.0,0,0.533,52,1.0,0,observed
75143,6,0.0,1,0.492,52,0.0,0,observed
75144,6,1.0,0,0.348,53,1.0,0,observed
75145,6,1.0,1,0.778,53,0.0,0,observed
75146,6,1.0,0,0.438,54,1.0,0,observed
75147,6,0.0,1,0.829,54,0.0,0,observed
75148,6,1.0,0,0.514,55,0.0,0,observed
75149,6,0.0,1,1.656,55,0.0,0,observed
75150,6,1.0,0,0.934,56,0.0,0,observed
75151,6,1.0,1,0.312,56,1.0,0,observed
75152,6,0.0,0,0.697,57,0.0,0,observed
75153,6,1.0,1,0.426,57,1.0,0,observed
75154,6,0.0,0,0.842,58,0.0,0,observed
75155,6,1.0,1,0.409,58,0.0,0,observed
75156,6,1.0,0,0.934,59,1.0,0,observed
75157,6,0.0,1,0.419,59,0.0,0,observed
75158,6,1.0,0,0.432,60,1.0,0,observed
75159,6,0.0,1,2.135,60,0.0,0,observed
75160,6,1.0,0,0.677,61,1.0,0,observed
75161,6,0.0,1,1.053,61,0.0,0,observed
75162,6,1.0,0,0.796,62,1.0,0,observed
75163,6,1.0,1,1.096,62,0.0,0,observed
75164,6,1.0,0,0.474,63,1.0,0,observed
75165,6,1.0,1,1.537,63,0.0,0,observed
75166,6,1.0,0,0.403,64,1.0,0,observed
75167,6,1.0,1,0.235,64,1.0,0,observed
75168,6,1.0,0,0.278,65,0.0,0,observed
75169,6,0.0,1,0.843,65,0.0,0,observed
75170,6,0.0,0,0.354,66,0.0,0,observed
75171,6,0.0,1,2.213,66,1.0,0,observed
75172,6,0.0,0,2.306,67,0.0,0,observed
75173,6,0.0,1,1.627,67,1.0,0,observed
75174,6,1.0,0,1.096,68,1.0,0,observed
75175,6,0.0,1,0.435,68,0.0,0,observed
75176,6,1.0,0,0.336,69,1.0,0,observed
75177,6,0.0,1,0.523,69,1.0,0,observed
75178,6,1.0,0,0.481,70,1.0,0,observed
75179,6,1.0,1,1.123,70,1.0,0,observed
75180,6,1.0,0,0.418,71,1.0,0,observed
75181,6,1.0,1,0.668,71,0.0,0,observed
75182,6,1.0,0,0.291,72,1.0,0,observed
75183,6,0.0,1,0.772,72,1.0,0,observed
75184,6,1.0,0,0.407,73,1.0,0,observed
75185,6,0.0,1,0.379,73,0.0,0,observed
75186,6,1.0,0,0.342,74,0.0,0,observed
75187,6,1.0,1,1.648,74,1.0,0,observed
75188,6,0.0,0,0.347,75,0.0,0,observed
75189,6,1.0,1,0.411,75,1.0,0,observed
75190,6,1.0,0,0.4,76,0.0,0,observed
75191,6,1.0,1,0.383,76,1.0,0,observed
75192,6,0.0,0,0.846,77,1.0,0,observed
75193,6,1.0,1,0.431,77,1.0,0,observed
75194,6,0.0,0,0.372,78,1.0,0,observed
75195,6,1.0,1,0.487,78,1.0,0,observed
75196,6,0.0,0,0.369,79,0.0,0,observed
75197,6,1.0,1,0.271,79,1.0,0,observed
75198,6,1.0,0,0.472,80,0.0,0,observed
75199,6,1.0,1,0.443,80,1.0,0,observed
75200,6,1.0,0,0.524,81,1.0,0,observed
75201,6,0.0,1,0.399,81,1.0,0,observed
75202,6,1.0,0,0.892,82,1.0,0,observed
75203,6,0.0,1,0.299,82,0.0,0,observed
75204,6,1.0,0,0.371,83,1.0,0,observed
75205,6,1.0,1,0.449,83,1.0,0,observed
75206,6,1.0,0,0.688,84,1.0,0,observed
75207,6,1.0,1,0.419,84,0.0,0,observed
75208,6,1.0,0,0.31,85,1.0,0,observed
75209,6,1.0,1,0.843,85,0.0,0,observed
75210,6,1.0,0,0.473,86,1.0,0,observed
75211,6,0.0,1,0.825,86,1.0,0,observed
75212,6,1.0,0,0.55,87,1.0,0,observed
75213,6,0.0,1,0.381,87,0.0,0,observed
75214,6,1.0,0,0.707,88,0.0,0,observed
75215,6,1.0,1,0.573,88,0.0,0,observed
75216,6,0.0,0,0.392,89,1.0,0,observed
75217,6,0.0,1,1.929,89,1.0,0,observed
75218,6,0.0,0,0.448,90,0.0,0,observed
75219,6,0.0,1,0.33,90,0.0,0,observed
75220,6,1.0,0,0.56,91,1.0,0,observed
75221,6,1.0,1,0.752,91,0.0,0,observed
75222,6,0.0,0,0.586,92,1.0,0,observed
75223,6,0.0,1,0.59,92,1.0,0,observed
75224,6,0.0,0,0.75,93,1.0,0,observed
75225,6,0.0,1,1.279,93,1.0,0,observed
75226,6,0.0,0,0.636,94,1.0,0,observed
75227,6,0.0,1,0.631,94,1.0,0,observed
75228,6,0.0,0,0.457,95,1.0,0,observed
75229,6,0.0,1,0.523,95,0.0,0,observed
75230,6,0.0,0,0.586,96,1.0,0,observed
75231,6,1.0,1,0.907,96,0.0,0,observed
75232,6,0.0,0,0.409,97,0.0,0,observed
75233,6,0.0,1,0.652,97,0.0,0,observed
75234,6,1.0,0,0.451,98,0.0,0,observed
75235,6,1.0,1,1.032,98,1.0,0,observed
75236,6,0.0,0,0.739,99,1.0,0,observed
75237,6,1.0,1,0.577,99,0.0,0,observed
75238,6,0.0,0,0.398,100,0.0,0,observed
75239,6,1.0,1,0.485,100,1.0,0,observed
75240,6,1.0,0,0.459,101,0.0,0,observed
75241,6,1.0,1,0.442,101,1.0,0,observed
75242,6,0.0,0,0.538,102,0.0,0,observed
75243,6,1.0,1,0.362,102,1.0,0,observed
75244,6,1.0,0,0.688,103,1.0,0,observed
75245,6,1.0,1,0.492,103,1.0,0,observed
75246,6,1.0,0,0.363,104,1.0,0,observed
75247,6,1.0,1,0.412,104,1.0,0,observed
75248,6,1.0,0,0.365,105,1.0,0,observed
75249,6,1.0,1,0.382,105,1.0,0,observed
75250,6,1.0,0,0.41,106,1.0,0,observed
75251,6,1.0,1,0.355,106,1.0,0,observed
75252,6,0.0,0,0.237,107,0.0,0,observed
75253,6,1.0,1,0.402,107,1.0,0,observed
75254,6,1.0,0,0.939,108,1.0,0,observed
75255,6,1.0,1,0.241,108,1.0,0,observed
75256,6,1.0,0,0.352,109,1.0,0,observed
75257,6,1.0,1,0.573,109,1.0,0,observed
75258,6,1.0,0,0.614,110,1.0,0,observed
75259,6,1.0,1,0.224,110,1.0,0,observed
75260,6,1.0,0,0.416,111,1.0,0,observed
75261,6,1.0,1,0.415,111,1.0,0,observed
75262,6,1.0,0,0.338,112,1.0,0,observed
75263,6,1.0,1,0.639,112,1.0,0,observed
75264,6,1.0,0,0.381,113,1.0,0,observed
75265,6,1.0,1,0.452,113,1.0,0,observed
75266,6,1.0,0,0.301,114,1.0,0,observed
75267,6,1.0,1,0.455,114,1.0,0,observed
75268,6,1.0,0,0.307,115,1.0,0,observed
75269,6,1.0,1,0.416,115,1.0,0,observed
75270,6,1.0,0,0.531,116,1.0,0,observed
75271,6,1.0,1,0.445,116,1.0,0,observed
75272,6,1.0,0,0.465,117,1.0,0,observed
75273,6,1.0,1,0.295,117,1.0,0,observed
75274,6,1.0,0,0.411,118,1.0,0,observed
75275,6,1.0,1,0.253,118,1.0,0,observed
75276,6,1.0,0,0.597,119,0.0,0,observed
75277,6,1.0,1,0.298,119,1.0,0,observed
75278,6,0.0,0,0.353,120,1.0,0,observed
75279,6,1.0,1,0.219,120,1.0,0,observed
75280,6,1.0,0,0.488,121,1.0,0,observed
75281,6,0.0,1,0.743,121,0.0,0,observed
75282,6,1.0,0,0.754,122,0.0,0,observed
75283,6,1.0,1,0.479,122,0.0,0,observed
75284,6,0.0,0,0.602,123,0.0,0,observed
75285,6,0.0,1,0.436,123,1.0,0,observed
75286,6,1.0,0,0.814,124,1.0,0,observed
75287,6,0.0,1,0.403,124,0.0,0,observed
75288,6,1.0,0,0.706,125,0.0,0,observed
75289,6,1.0,1,0.59,125,1.0,0,observed
75290,6,0.0,0,0.54,126,0.0,0,observed
75291,6,1.0,1,0.804,126,1.0,0,observed
75292,6,1.0,0,0.546,127,1.0,0,observed
75293,6,1.0,1,0.422,127,1.0,0,observed
75294,6,1.0,0,0.399,128,0.0,0,observed
75295,6,1.0,1,0.756,128,1.0,0,observed
75296,6,0.0,0,0.393,129,1.0,0,observed
75297,6,1.0,1,0.629,129,1.0,0,observed
75298,6,0.0,0,0.553,130,0.0,0,observed
75299,6,1.0,1,0.599,130,1.0,0,observed
75300,6,1.0,0,0.524,131,1.0,0,observed
75301,6,1.0,1,0.493,131,0.0,0,observed
75302,6,1.0,0,0.309,132,1.0,0,observed
75303,6,0.0,1,0.345,132,0.0,0,observed
75304,6,1.0,0,0.443,133,1.0,0,observed
75305,6,1.0,1,0.365,133,0.0,0,observed
75306,6,1.0,0,0.43,134,1.0,0,observed
75307,6,0.0,1,0.255,134,1.0,0,observed
75308,6,1.0,0,0.372,135,0.0,0,observed
75309,6,0.0,1,0.509,135,0.0,0,observed
75310,6,0.0,0,0.568,136,1.0,0,observed
75311,6,1.0,1,0.323,136,0.0,0,observed
75312,6,0.0,0,0.404,137,0.0,0,observed
75313,6,1.0,1,0.697,137,1.0,0,observed
75314,6,1.0,0,1.753,138,1.0,0,observed
75315,6,1.0,1,0.525,138,1.0,0,observed
75316,6,1.0,0,0.47,139,1.0,0,observed
75317,6,1.0,1,0.407,139,1.0,0,observed
75318,6,1.0,0,1.084,140,0.0,0,observed
75319,6,1.0,1,0.33,140,0.0,0,observed
75320,6,0.0,0,0.361,141,1.0,0,observed
75321,6,0.0,1,2.105,141,0.0,0,observed
75322,6,0.0,0,0.54,142,0.0,0,observed
75323,6,0.0,1,0.569,142,0.0,0,observed
75324,6,1.0,0,0.612,143,1.0,0,observed
75325,6,1.0,1,1.134,143,0.0,0,observed
75326,6,1.0,0,0.313,144,0.0,0,observed
75327,6,0.0,1,0.865,144,0.0,0,observed
75328,6,0.0,0,0.529,145,0.0,0,observed
75329,6,0.0,1,0.709,145,0.0,0,observed
75330,6,1.0,0,0.4,146,1.0,0,observed
75331,6,1.0,1,1.299,146,0.0,0,observed
75332,6,1.0,0,0.306,147,1.0,0,observed
75333,6,1.0,1,1.168,147,1.0,0,observed
75334,6,1.0,0,0.322,148,0.0,0,observed
75335,6,1.0,1,0.565,148,0.0,0,observed
75336,6,0.0,0,0.738,149,1.0,0,observed
75337,6,0.0,1,1.075,149,0.0,0,observed
75338,6,0.0,0,0.629,150,0.0,0,observed
75339,6,1.0,1,2.248,150,1.0,0,observed
75340,6,1.0,0,0.242,151,0.0,0,observed
75341,6,1.0,1,0.426,151,0.0,0,observed
75342,6,0.0,0,0.329,152,0.0,0,observed
75343,6,0.0,1,0.673,152,1.0,0,observed
75344,6,1.0,0,0.73,153,1.0,0,observed
75345,6,0.0,1,0.649,153,0.0,0,observed
75346,6,1.0,0,0.86,154,1.0,0,observed
75347,6,1.0,1,0.757,154,1.0,0,observed
75348,6,1.0,0,0.322,155,1.0,0,observed
75349,6,1.0,1,1.401,155,1.0,0,observed
75350,6,1.0,0,0.393,156,1.0,0,observed
75351,6,1.0,1,0.429,156,1.0,0,observed
75352,6,1.0,0,0.456,157,1.0,0,observed
75353,6,1.0,1,0.311,157,1.0,0,observed
75354,6,1.0,0,0.422,158,1.0,0,observed
75355,6,1.0,1,0.523,158,1.0,0,observed
75356,6,1.0,0,0.41,159,1.0,0,observed
75357,6,1.0,1,0.429,159,1.0,0,observed
75358,6,1.0,0,0.378,160,1.0,0,observed
75359,6,1.0,1,0.463,160,1.0,0,observed
77280,7,0.0,0,1.207,1,0.0,0,observed
77281,7,0.0,1,0.759,1,1.0,0,observed
77282,7,1.0,0,0.803,2,1.0,0,observed
77283,7,1.0,1,1.46,2,0.0,0,observed
77284,7,1.0,0,1.163,3,0.0,0,observed
77285,7,0.0,1,0.446,3,1.0,0,observed
77286,7,0.0,0,0.798,4,0.0,0,observed
77287,7,0.0,1,1.2,4,1.0,0,observed
77288,7,1.0,0,1.049,5,1.0,0,observed
77289,7,0.0,1,1.101,5,1.0,0,observed
77290,7,1.0,0,0.731,6,0.0,0,observed
77291,7,0.0,1,0.352,6,0.0,0,observed
77292,7,0.0,0,2.075,7,1.0,0,observed
77293,7,1.0,1,0.531,7,1.0,0,observed
77294,7,0.0,0,1.297,8,0.0,0,observed
77295,7,1.0,1,0.473,8,1.0,0,observed
77296,7,1.0,0,0.931,9,1.0,0,observed
77297,7,1.0,1,0.482,9,1.0,0,observed
77298,7,0.0,0,0.601,10,0.0,0,observed
77299,7,1.0,1,0.585,10,0.0,0,observed
77300,7,1.0,0,0.598,11,1.0,0,observed
77301,7,0.0,1,0.233,11,0.0,0,observed
77302,7,1.0,0,0.702,12,0.0,0,observed
77303,7,1.0,1,0.884,12,1.0,0,observed
77304,7,1.0,0,0.969,13,0.0,0,observed
77305,7,1.0,1,0.513,13,0.0,0,observed
77306,7,0.0,0,0.66,14,1.0,0,observed
77307,7,1.0,1,0.592,14,1.0,0,observed
77308,7,0.0,0,1.097,15,1.0,0,observed
77309,7,1.0,1,0.483,15,1.0,0,observed
77310,7,1.0,0,1.276,16,1.0,0,observed
77311,7,1.0,1,0.511,16,1.0,0,observed
77312,7,0.0,0,1.861,17,0.0,0,observed
77313,7,1.0,1,0.807,17,0.0,0,observed
77314,7,1.0,0,0.855,18,1.0,0,observed
77315,7,0.0,1,0.383,18,0.0,0,observed
77316,7,1.0,0,0.986,19,0.0,0,observed
77317,7,1.0,1,0.514,19,0.0,0,observed
77318,7,0.0,0,0.727,20,1.0,0,observed
77319,7,0.0,1,0.531,20,1.0,0,observed
77320,7,0.0,0,0.972,21,1.0,0,observed
77321,7,0.0,1,0.447,21,1.0,0,observed
77322,7,1.0,0,0.669,22,1.0,0,observed
77323,7,0.0,1,0.274,22,1.0,0,observed
77324,7,0.0,0,1.425,23,0.0,0,observed
77325,7,0.0,1,0.424,23,0.0,0,observed
77326,7,0.0,0,1.202,24,1.0,0,observed
77327,7,1.0,1,0.525,24,1.0,0,observed
77328,7,1.0,0,0.763,25,1.0,0,observed
77329,7,0.0,1,0.596,25,0.0,0,observed
77330,7,1.0,0,1.995,26,1.0,0,observed
77331,7,0.0,1,0.515,26,0.0,0,observed
77332,7,1.0,0,1.732,27,1.0,0,observed
77333,7,0.0,1,0.793,27,0.0,0,observed
77334,7,0.0,0,1.987,28,0.0,0,observed
77335,7,0.0,1,0.82,28,0.0,0,observed
77336,7,1.0,0,0.51,29,1.0,0,observed
77337,7,0.0,1,0.469,29,0.0,0,observed
77338,7,0.0,0,1.676,30,0.0,0,observed
77339,7,0.0,1,0.523,30,0.0,0,observed
77340,7,0.0,0,1.221,31,1.0,0,observed
77341,7,1.0,1,0.418,31,1.0,0,observed
77342,7,0.0,0,1.687,32,0.0,0,observed
77343,7,1.0,1,0.422,32,1.0,0,observed
77344,7,0.0,0,1.316,33,0.0,0,observed
77345,7,1.0,1,0.413,33,1.0,0,observed
77346,7,1.0,0,1.233,34,1.0,0,observed
77347,7,1.0,1,0.286,34,1.0,0,observed
77348,7,1.0,0,0.694,35,1.0,0,observed
77349,7,1.0,1,0.399,35,1.0,0,observed
77350,7,1.0,0,1.323,36,1.0,0,observed
77351,7,1.0,1,0.497,36,1.0,0,observed
77352,7,0.0,0,1.087,37,0.0,0,observed
77353,7,1.0,1,0.481,37,1.0,0,observed
77354,7,1.0,0,0.624,38,1.0,0,observed
77355,7,1.0,1,0.44,38,1.0,0,observed
77356,7,1.0,0,1.341,39,1.0,0,observed
77357,7,1.0,1,0.319,39,1.0,0,observed
77358,7,1.0,0,0.679,40,1.0,0,observed
77359,7,1.0,1,0.335,40,1.0,0,observed
77360,7,0.0,0,0.545,41,0.0,0,observed
77361,7,0.0,1,0.448,41,0.0,0,observed
77362,7,1.0,0,0.503,42,0.0,0,observed
77363,7,1.0,1,0.354,42,1.0,0,observed
77364,7,0.0,0,0.339,43,0.0,0,observed
77365,7,1.0,1,0.289,43,0.0,0,observed
77366,7,1.0,0,0.782,44,1.0,0,observed
77367,7,0.0,1,0.405,44,0.0,0,observed
77368,7,1.0,0,0.993,45,0.0,0,observed
77369,7,1.0,1,1.393,45,1.0,0,observed
77370,7,0.0,0,0.802,46,0.0,0,observed
77371,7,1.0,1,0.368,46,1.0,0,observed
77372,7,0.0,0,0.603,47,0.0,0,observed
77373,7,1.0,1,0.492,47,1.0,0,observed
77374,7,1.0,0,0.927,48,1.0,0,observed
77375,7,1.0,1,0.418,48,1.0,0,observed
77376,7,0.0,0,1.187,49,1.0,0,observed
77377,7,1.0,1,0.322,49,0.0,0,observed
77378,7,0.0,0,1.478,50,0.0,0,observed
77379,7,0.0,1,0.404,50,0.0,0,observed
77380,7,0.0,0,0.522,51,0.0,0,observed
77381,7,1.0,1,0.252,51,1.0,0,observed
77382,7,1.0,0,0.463,52,1.0,0,observed
77383,7,1.0,1,0.584,52,1.0,0,observed
77384,7,0.0,0,1.82,53,0.0,0,observed
77385,7,1.0,1,0.667,53,1.0,0,observed
77386,7,1.0,0,0.52,54,1.0,0,observed
77387,7,0.0,1,0.652,54,0.0,0,observed
77388,7,1.0,0,0.924,55,0.0,0,observed
77389,7,1.0,1,0.326,55,0.0,0,observed
77390,7,0.0,0,0.648,56,1.0,0,observed
77391,7,0.0,1,0.677,56,0.0,0,observed
77392,7,0.0,0,0.543,57,1.0,0,observed
77393,7,1.0,1,0.342,57,1.0,0,observed
77394,7,0.0,0,1.658,58,0.0,0,observed
77395,7,1.0,1,1.302,58,0.0,0,observed
77396,7,1.0,0,1.585,59,0.0,0,observed
77397,7,1.0,1,0.484,59,0.0,0,observed
77398,7,0.0,0,0.664,60,1.0,0,observed
77399,7,1.0,1,0.511,60,1.0,0,observed
77400,7,1.0,0,0.473,61,1.0,0,observed
77401,7,1.0,1,0.528,61,1.0,0,observed
77402,7,0.0,0,2.069,62,1.0,0,observed
77403,7,1.0,1,1.329,62,1.0,0,observed
77404,7,1.0,0,1.198,63,1.0,0,observed
77405,7,1.0,1,0.8,63,1.0,0,observed
77406,7,0.0,0,1.415,64,0.0,0,observed
77407,7,1.0,1,0.363,64,1.0,0,observed
77408,7,1.0,0,0.573,65,0.0,0,observed
77409,7,1.0,1,0.534,65,0.0,0,observed
77410,7,0.0,0,0.345,66,1.0,0,observed
77411,7,0.0,1,1.068,66,1.0,0,observed
77412,7,0.0,0,1.16,67,0.0,0,observed
77413,7,0.0,1,0.355,67,0.0,0,observed
77414,7,1.0,0,1.486,68,1.0,0,observed
77415,7,0.0,1,0.76,68,1.0,0,observed
77416,7,0.0,0,1.026,69,0.0,0,observed
77417,7,1.0,1,1.017,69,1.0,0,observed
77418,7,1.0,0,0.714,70,1.0,0,observed
77419,7,1.0,1,0.4,70,1.0,0,observed
77420,7,1.0,0,0.278,71,1.0,0,observed
77421,7,1.0,1,0.382,71,1.0,0,observed
77422,7,1.0,0,0.536,72,1.0,0,observed
77423,7,1.0,1,0.67,72,0.0,0,observed
77424,7,1.0,0,0.914,73,0.0,0,observed
77425,7,0.0,1,0.435,73,0.0,0,observed
77426,7,1.0,0,0.495,74,1.0,0,observed
77427,7,1.0,1,0.293,74,1.0,0,observed
77428,7,1.0,0,0.352,75,1.0,0,observed
77429,7,0.0,1,1.035,75,1.0,0,observed
77430,7,1.0,0,1.938,76,1.0,0,observed
77431,7,0.0,1,0.315,76,1.0,0,observed
77432,7,0.0,0,1.326,77,0.0,0,observed
77433,7,0.0,1,0.886,77,1.0,0,observed
77434,7,1.0,0,1.195,78,1.0,0,observed
77435,7,1.0,1,0.499,78,1.0,0,observed
77436,7,1.0,0,0.319,79,1.0,0,observed
77437,7,1.0,1,1.45,79,1.0,0,observed
77438,7,1.0,0,0.362,80,1.0,0,observed
77439,7,1.0,1,0.585,80,1.0,0,observed
77440,7,0.0,0,0.62,81,1.0,0,observed
77441,7,1.0,1,0.583,81,0.0,0,observed
77442,7,0.0,0,0.519,82,0.0,0,observed
77443,7,0.0,1,0.296,82,1.0,0,observed
77444,7,1.0,0,0.506,83,0.0,0,observed
77445,7,0.0,1,0.552,83,0.0,0,observed
77446,7,0.0,0,0.36,84,0.0,0,observed
77447,7,1.0,1,0.52,84,0.0,0,observed
77448,7,0.0,0,0.288,85,1.0,0,observed
77449,7,1.0,1,1.098,85,0.0,0,observed
77450,7,0.0,0,0.364,86,0.0,0,observed
77451,7,0.0,1,0.234,86,1.0,0,observed
77452,7,0.0,0,0.377,87,0.0,0,observed
77453,7,1.0,1,0.623,87,0.0,0,observed
77454,7,1.0,0,0.41,88,0.0,0,observed
77455,7,1.0,1,0.444,88,1.0,0,observed
77456,7,0.0,0,0.659,89,1.0,0,observed
77457,7,1.0,1,0.374,89,1.0,0,observed
77458,7,0.0,0,0.564,90,1.0,0,observed
77459,7,1.0,1,1.38,90,0.0,0,observed
77460,7,0.0,0,0.991,91,1.0,0,observed
77461,7,1.0,1,0.599,91,1.0,0,observed
77462,7,0.0,0,0.279,92,0.0,0,observed
77463,7,0.0,1,2.244,92,1.0,0,observed
77464,7,1.0,0,0.294,93,0.0,0,observed
77465,7,0.0,1,0.73,93,0.0,0,observed
77466,7,0.0,0,0.724,94,1.0,0,observed
77467,7,1.0,1,0.247,94,1.0,0,observed
77468,7,1.0,0,1.378,95,0.0,0,observed
77469,7,1.0,1,0.348,95,1.0,0,observed
77470,7,0.0,0,0.761,96,1.0,0,observed
77471,7,1.0,1,0.362,96,1.0,0,observed
77472,7,1.0,0,1.961,97,0.0,0,observed
77473,7,0.0,1,0.775,97,1.0,0,observed
77474,7,0.0,0,0.558,98,0.0,0,observed
77475,7,1.0,1,0.547,98,1.0,0,observed
77476,7,0.0,0,0.447,99,0.0,0,observed
77477,7,1.0,1,1.29,99,0.0,0,observed
77478,7,1.0,0,0.196,100,1.0,0,observed
77479,7,1.0,1,0.637,100,1.0,0,observed
77480,7,1.0,0,0.379,101,1.0,0,observed
77481,7,1.0,1,0.308,101,1.0,0,observed
77482,7,1.0,0,1.651,102,1.0,0,observed
77483,7,1.0,1,0.469,102,1.0,0,observed
77484,7,1.0,0,0.861,103,1.0,0,observed
77485,7,1.0,1,0.411,103,0.0,0,observed
77486,7,1.0,0,0.429,104,1.0,0,observed
77487,7,0.0,1,0.491,104,1.0,0,observed
77488,7,1.0,0,0.429,105,1.0,0,observed
77489,7,1.0,1,1.075,105,1.0,0,observed
77490,7,1.0,0,0.481,106,1.0,0,observed
77491,7,1.0,1,0.56,106,1.0,0,observed
77492,7,1.0,0,0.252,107,1.0,0,observed
77493,7,1.0,1,0.363,107,1.0,0,observed
77494,7,1.0,0,0.567,108,1.0,0,observed
77495,7,0.0,1,0.937,108,0.0,0,observed
77496,7,1.0,0,0.388,109,1.0,0,observed
77497,7,1.0,1,0.227,109,1.0,0,observed
77498,7,1.0,0,0.478,110,1.0,0,observed
77499,7,1.0,1,0.252,110,1.0,0,observed
77500,7,1.0,0,0.494,111,1.0,0,observed
77501,7,1.0,1,0.848,111,1.0,0,observed
77502,7,1.0,0,0.278,112,1.0,0,observed
77503,7,1.0,1,0.484,112,1.0,0,observed
77504,7,1.0,0,0.429,113,1.0,0,observed
77505,7,1.0,1,0.441,113,1.0,0,observed
77506,7,1.0,0,0.493,114,1.0,0,observed
77507,7,1.0,1,0.608,114,1.0,0,observed
77508,7,1.0,0,0.383,115,1.0,0,observed
77509,7,1.0,1,0.459,115,1.0,0,observed
77510,7,1.0,0,0.48,116,1.0,0,observed
77511,7,1.0,1,0.498,116,1.0,0,observed
77512,7,1.0,0,0.531,117,1.0,0,observed
77513,7,1.0,1,0.377,117,1.0,0,observed
77514,7,1.0,0,0.798,118,1.0,0,observed
77515,7,1.0,1,0.655,118,1.0,0,observed
77516,7,1.0,0,0.333,119,1.0,0,observed
77517,7,1.0,1,0.53,119,1.0,0,observed
77518,7,1.0,0,0.375,120,1.0,0,observed
77519,7,1.0,1,0.577,120,1.0,0,observed
77520,7,0.0,0,0.314,121,1.0,0,observed
77521,7,0.0,1,0.844,121,0.0,0,observed
77522,7,0.0,0,0.314,122,0.0,0,observed
77523,7,1.0,1,0.551,122,1.0,0,observed
77524,7,1.0,0,0.356,123,1.0,0,observed
77525,7,1.0,1,0.301,123,0.0,0,observed
77526,7,1.0,0,0.482,124,1.0,0,observed
77527,7,0.0,1,0.45,124,1.0,0,observed
77528,7,1.0,0,0.612,125,1.0,0,observed
77529,7,0.0,1,0.253,125,0.0,0,observed
77530,7,1.0,0,0.306,126,1.0,0,observed
77531,7,1.0,1,0.308,126,1.0,0,observed
77532,7,1.0,0,0.344,127,1.0,0,observed
77533,7,1.0,1,0.537,127,0.0,0,observed
77534,7,1.0,0,0.369,128,0.0,0,observed
77535,7,1.0,1,0.711,128,1.0,0,observed
77536,7,0.0,0,0.358,129,1.0,0,observed
77537,7,1.0,1,0.721,129,0.0,0,observed
77538,7,0.0,0,0.285,130,0.0,0,observed
77539,7,0.0,1,0.671,130,1.0,0,observed
77540,7,1.0,0,0.437,131,0.0,0,observed
77541,7,1.0,1,0.462,131,1.0,0,observed
77542,7,0.0,0,0.273,132,1.0,0,observed
77543,7,1.0,1,1.321,132,1.0,0,observed
77544,7,0.0,0,0.342,133,0.0,0,observed
77545,7,1.0,1,0.862,133,1.0,0,observed
77546,7,1.0,0,0.173,134,0.0,0,observed
77547,7,0.0,1,1.535,134,0.0,0,observed
77548,7,1.0,0,0.359,135,1.0,0,observed
77549,7,1.0,1,0.375,135,1.0,0,observed
77550,7,1.0,0,0.235,136,1.0,0,observed
77551,7,1.0,1,0.923,136,1.0,0,observed
77552,7,1.0,0,0.349,137,0.0,0,observed
77553,7,1.0,1,0.377,137,0.0,0,observed
77554,7,0.0,0,0.484,138,0.0,0,observed
77555,7,0.0,1,0.383,138,0.0,0,observed
77556,7,1.0,0,0.404,139,1.0,0,observed
77557,7,1.0,1,0.174,139,0.0,0,observed
77558,7,1.0,0,0.416,140,0.0,0,observed
77559,7,1.0,1,0.212,140,0.0,0,observed
77560,7,0.0,0,0.285,141,0.0,0,observed
77561,7,0.0,1,0.278,141,1.0,0,observed
77562,7,1.0,0,0.456,142,1.0,0,observed
77563,7,0.0,1,0.277,142,0.0,0,observed
77564,7,1.0,0,0.67,143,1.0,0,observed
77565,7,0.0,1,0.341,143,0.0,0,observed
77566,7,1.0,0,0.422,144,1.0,0,observed
77567,7,1.0,1,0.23,144,0.0,0,observed
77568,7,1.0,0,0.385,145,1.0,0,observed
77569,7,0.0,1,0.28,145,1.0,0,observed
77570,7,0.0,0,0.401,146,0.0,0,observed
77571,7,0.0,1,0.356,146,0.0,0,observed
77572,7,1.0,0,0.173,147,1.0,0,observed
77573,7,1.0,1,2.377,147,1.0,0,observed
77574,7,1.0,0,1.193,148,1.0,0,observed
77575,7,1.0,1,0.579,148,1.0,0,observed
77576,7,1.0,0,0.308,149,1.0,0,observed
77577,7,1.0,1,0.309,149,1.0,0,observed
77578,7,1.0,0,0.355,150,1.0,0,observed
77579,7,1.0,1,0.442,150,1.0,0,observed
77580,7,1.0,0,0.611,151,0.0,0,observed
77581,7,1.0,1,0.441,151,1.0,0,observed
77582,7,1.0,0,0.48,152,0.0,0,observed
77583,7,1.0,1,0.406,152,1.0,0,observed
77584,7,1.0,0,0.737,153,1.0,0,observed
77585,7,0.0,1,0.844,153,0.0,0,observed
77586,7,1.0,0,0.988,154,1.0,0,observed
77587,7,0.0,1,0.309,154,0.0,0,observed
77588,7,1.0,0,0.526,155,1.0,0,observed
77589,7,1.0,1,0.412,155,1.0,0,observed
77590,7,1.0,0,0.366,156,1.0,0,observed
77591,7,1.0,1,0.6,156,1.0,0,observed
77592,7,1.0,0,1.161,157,1.0,0,observed
77593,7,1.0,1,1.149,157,1.0,0,observed
77594,7,1.0,0,2.142,158,0.0,0,observed
77595,7,1.0,1,0.521,158,1.0,0,observed
77596,7,0.0,0,0.267,159,1.0,0,observed
77597,7,1.0,1,0.524,159,0.0,0,observed
77598,7,1.0,0,0.789,160,1.0,0,observed
77599,7,1.0,1,0.429,160,1.0,0,observed
81760,8,0.0,0,0.528,1,1.0,0,observed
81761,8,1.0,1,0.378,1,1.0,0,observed
81762,8,0.0,0,1.064,2,0.0,0,observed
81763,8,1.0,1,0.335,2,0.0,0,observed
81764,8,0.0,0,0.766,3,0.0,0,observed
81765,8,0.0,1,0.575,3,0.0,0,observed
81766,8,1.0,0,0.68,4,1.0,0,observed
81767,8,1.0,1,1.694,4,0.0,0,observed
81768,8,0.0,0,2.164,5,0.0,0,observed
81769,8,0.0,1,0.421,5,0.0,0,observed
81770,8,1.0,0,0.976,6,1.0,0,observed
81771,8,0.0,1,0.396,6,0.0,0,observed
81772,8,1.0,0,0.45,7,0.0,0,observed
81773,8,1.0,1,0.542,7,1.0,0,observed
81774,8,0.0,0,1.013,8,1.0,0,observed
81775,8,1.0,1,0.344,8,1.0,0,observed
81776,8,1.0,0,2.072,9,1.0,0,observed
81777,8,1.0,1,0.545,9,1.0,0,observed
81778,8,0.0,0,1.562,10,0.0,0,observed
81779,8,1.0,1,0.425,10,1.0,0,observed
81780,8,0.0,0,1.168,11,1.0,0,observed
81781,8,1.0,1,0.525,11,1.0,0,observed
81782,8,0.0,0,0.588,12,0.0,0,observed
81783,8,1.0,1,0.4,12,0.0,0,observed
81784,8,0.0,0,0.583,13,1.0,0,observed
81785,8,1.0,1,0.484,13,1.0,0,observed
81786,8,1.0,0,1.572,14,0.0,0,observed
81787,8,1.0,1,0.428,14,0.0,0,observed
81788,8,0.0,0,0.424,15,0.0,0,observed
81789,8,0.0,1,0.515,15,0.0,0,observed
81790,8,1.0,0,0.603,16,1.0,0,observed
81791,8,1.0,1,0.34,16,0.0,0,observed
81792,8,1.0,0,0.337,17,1.0,0,observed
81793,8,1.0,1,0.316,17,1.0,0,observed
81794,8,1.0,0,0.373,18,0.0,0,observed
81795,8,1.0,1,0.554,18,0.0,0,observed
81796,8,0.0,0,0.441,19,1.0,0,observed
81797,8,0.0,1,0.39,19,1.0,0,observed
81798,8,0.0,0,0.348,20,0.0,0,observed
81799,8,0.0,1,0.44,20,1.0,0,observed
81800,8,1.0,0,0.617,21,1.0,0,observed
81801,8,0.0,1,0.526,21,0.0,0,observed
81802,8,1.0,0,0.277,22,0.0,0,observed
81803,8,0.0,1,0.598,22,0.0,0,observed
81804,8,1.0,0,0.413,23,1.0,0,observed
81805,8,1.0,1,0.417,23,1.0,0,observed
81806,8,1.0,0,0.381,24,1.0,0,observed
81807,8,1.0,1,0.258,24,1.0,0,observed
81808,8,1.0,0,0.434,25,1.0,0,observed
81809,8,1.0,1,0.399,25,1.0,0,observed
81810,8,1.0,0,0.348,26,1.0,0,observed
81811,8,1.0,1,0.535,26,0.0,0,observed
81812,8,1.0,0,0.384,27,0.0,0,observed
81813,8,1.0,1,0.332,27,1.0,0,observed
81814,8,0.0,0,0.334,28,1.0,0,observed
81815,8,1.0,1,0.29,28,0.0,0,observed
81816,8,0.0,0,0.342,29,0.0,0,observed
81817,8,1.0,1,0.531,29,1.0,0,observed
81818,8,1.0,0,0.355,30,1.0,0,observed
81819,8,1.0,1,0.695,30,1.0,0,observed
81820,8,1.0,0,0.436,31,0.0,0,observed
81821,8,1.0,1,0.724,31,1.0,0,observed
81822,8,0.0,0,0.729,32,0.0,0,observed
81823,8,1.0,1,0.666,32,0.0,0,observed
81824,8,0.0,0,1.219,33,0.0,0,observed
81825,8,1.0,1,0.457,33,1.0,0,observed
81826,8,1.0,0,1.174,34,1.0,0,observed
81827,8,1.0,1,0.624,34,1.0,0,observed
81828,8,1.0,0,0.328,35,1.0,0,observed
81829,8,1.0,1,0.364,35,1.0,0,observed
81830,8,1.0,0,0.344,36,1.0,0,observed
81831,8,1.0,1,0.742,36,0.0,0,observed
81832,8,1.0,0,0.422,37,1.0,0,observed
81833,8,1.0,1,0.342,37,1.0,0,observed
81834,8,1.0,0,0.372,38,1.0,0,observed
81835,8,1.0,1,0.414,38,1.0,0,observed
81836,8,1.0,0,0.44,39,1.0,0,observed
81837,8,1.0,1,0.39,39,1.0,0,observed
81838,8,1.0,0,0.765,40,1.0,0,observed
81839,8,1.0,1,0.429,40,1.0,0,observed
81840,8,0.0,0,0.336,41,1.0,0,observed
81841,8,0.0,1,0.352,41,1.0,0,observed
81842,8,0.0,0,0.263,42,1.0,0,observed
81843,8,0.0,1,0.39,42,0.0,0,observed
81844,8,0.0,0,0.288,43,0.0,0,observed
81845,8,0.0,1,0.379,43,1.0,0,observed
81846,8,1.0,0,0.597,44,1.0,0,observed
81847,8,0.0,1,0.403,44,1.0,0,observed
81848,8,1.0,0,0.275,45,1.0,0,observed
81849,8,0.0,1,0.57,45,1.0,0,observed
81850,8,1.0,0,0.368,46,1.0,0,observed
81851,8,0.0,1,0.412,46,0.0,0,observed
81852,8,1.0,0,0.533,47,0.0,0,observed
81853,8,0.0,1,0.379,47,1.0,0,observed
81854,8,0.0,0,0.41,48,0.0,0,observed
81855,8,0.0,1,0.334,48,0.0,0,observed
81856,8,0.0,0,2.027,49,1.0,0,observed
81857,8,0.0,1,1.019,49,0.0,0,observed
81858,8,0.0,0,0.353,50,0.0,0,observed
81859,8,0.0,1,0.378,50,0.0,0,observed
81860,8,1.0,0,0.386,51,0.0,0,observed
81861,8,1.0,1,0.435,51,1.0,0,observed
81862,8,0.0,0,0.55,52,0.0,0,observed
81863,8,1.0,1,0.727,52,0.0,0,observed
81864,8,0.0,0,0.416,53,1.0,0,observed
81865,8,1.0,1,0.333,53,0.0,0,observed
81866,8,0.0,0,0.254,54,0.0,0,observed
81867,8,1.0,1,0.556,54,0.0,0,observed
81868,8,0.0,0,0.426,55,0.0,0,observed
81869,8,0.0,1,0.49,55,0.0,0,observed
81870,8,1.0,0,0.258,56,1.0,0,observed
81871,8,0.0,1,0.412,56,1.0,0,observed
81872,8,1.0,0,0.329,57,1.0,0,observed
81873,8,0.0,1,0.434,57,0.0,0,observed
81874,8,1.0,0,0.387,58,0.0,0,observed
81875,8,0.0,1,0.508,58,0.0,0,observed
81876,8,0.0,0,0.642,59,1.0,0,observed
81877,8,1.0,1,0.468,59,0.0,0,observed
81878,8,0.0,0,0.345,60,1.0,0,observed
81879,8,0.0,1,0.348,60,0.0,0,observed
81880,8,0.0,0,0.32,61,0.0,0,observed
81881,8,0.0,1,0.491,61,0.0,0,observed
81882,8,1.0,0,0.486,62,1.0,0,observed
81883,8,1.0,1,0.357,62,1.0,0,observed
81884,8,1.0,0,0.358,63,1.0,0,observed
81885,8,1.0,1,0.533,63,1.0,0,observed
81886,8,1.0,0,0.453,64,0.0,0,observed
81887,8,1.0,1,0.328,64,1.0,0,observed
81888,8,0.0,0,0.368,65,1.0,0,observed
81889,8,1.0,1,0.37,65,1.0,0,observed
81890,8,0.0,0,0.337,66,1.0,0,observed
81891,8,1.0,1,0.335,66,0.0,0,observed
81892,8,0.0,0,0.362,67,0.0,0,observed
81893,8,1.0,1,0.36,67,1.0,0,observed
81894,8,1.0,0,0.417,68,1.0,0,observed
81895,8,1.0,1,0.589,68,1.0,0,observed
81896,8,1.0,0,0.363,69,1.0,0,observed
81897,8,1.0,1,0.459,69,1.0,0,observed
81898,8,1.0,0,1.12,70,1.0,0,observed
81899,8,1.0,1,0.357,70,1.0,0,observed
81900,8,1.0,0,0.311,71,1.0,0,observed
81901,8,1.0,1,0.371,71,1.0,0,observed
81902,8,1.0,0,0.352,72,1.0,0,observed
81903,8,1.0,1,0.479,72,1.0,0,observed
81904,8,1.0,0,0.419,73,1.0,0,observed
81905,8,1.0,1,0.288,73,1.0,0,observed
81906,8,1.0,0,0.351,74,1.0,0,observed
81907,8,1.0,1,0.322,74,1.0,0,observed
81908,8,1.0,0,0.304,75,1.0,0,observed
81909,8,1.0,1,0.671,75,1.0,0,observed
81910,8,1.0,0,0.713,76,1.0,0,observed
81911,8,1.0,1,0.565,76,0.0,0,observed
81912,8,1.0,0,0.413,77,1.0,0,observed
81913,8,1.0,1,0.381,77,1.0,0,observed
81914,8,1.0,0,0.666,78,1.0,0,observed
81915,8,1.0,1,0.414,78,1.0,0,observed
81916,8,1.0,0,0.544,79,1.0,0,observed
81917,8,1.0,1,0.888,79,1.0,0,observed
81918,8,1.0,0,0.506,80,1.0,0,observed
81919,8,1.0,1,0.479,80,1.0,0,observed
81920,8,0.0,0,0.445,81,0.0,0,observed
81921,8,0.0,1,0.681,81,1.0,0,observed
81922,8,1.0,0,0.507,82,0.0,0,observed
81923,8,0.0,1,0.578,82,1.0,0,observed
81924,8,1.0,0,0.543,83,0.0,0,observed
81925,8,0.0,1,0.493,83,1.0,0,observed
81926,8,1.0,0,0.577,84,1.0,0,observed
81927,8,0.0,1,0.427,84,1.0,0,observed
81928,8,1.0,0,0.455,85,1.0,0,observed
81929,8,0.0,1,1.108,85,0.0,0,observed
81930,8,1.0,0,0.448,86,1.0,0,observed
81931,8,1.0,1,0.459,86,1.0,0,observed
81932,8,1.0,0,0.437,87,1.0,0,observed
81933,8,0.0,1,0.37,87,1.0,0,observed
81934,8,1.0,0,0.411,88,0.0,0,observed
81935,8,1.0,1,0.405,88,1.0,0,observed
81936,8,0.0,0,0.62,89,0.0,0,observed
81937,8,1.0,1,0.427,89,1.0,0,observed
81938,8,0.0,0,0.378,90,0.0,0,observed
81939,8,1.0,1,0.489,90,1.0,0,observed
81940,8,0.0,0,0.33,91,0.0,0,observed
81941,8,1.0,1,0.327,91,1.0,0,observed
81942,8,1.0,0,0.303,92,0.0,0,observed
81943,8,1.0,1,0.403,92,0.0,0,observed
81944,8,0.0,0,0.454,93,0.0,0,observed
81945,8,1.0,1,0.398,93,1.0,0,observed
81946,8,0.0,0,0.315,94,1.0,0,observed
81947,8,1.0,1,0.31,94,1.0,0,observed
81948,8,0.0,0,0.402,95,0.0,0,observed
81949,8,1.0,1,0.414,95,0.0,0,observed
81950,8,1.0,0,0.531,96,1.0,0,observed
81951,8,1.0,1,0.39,96,0.0,0,observed
81952,8,1.0,0,0.38,97,0.0,0,observed
81953,8,1.0,1,0.481,97,0.0,0,observed
81954,8,0.0,0,0.791,98,1.0,0,observed
81955,8,1.0,1,0.492,98,0.0,0,observed
81956,8,0.0,0,0.399,99,0.0,0,observed
81957,8,0.0,1,0.382,99,0.0,0,observed
81958,8,0.0,0,0.424,100,1.0,0,observed
81959,8,0.0,1,0.379,100,0.0,0,observed
81960,8,0.0,0,0.459,101,0.0,0,observed
81961,8,1.0,1,0.42,101,1.0,0,observed
81962,8,0.0,0,0.765,102,1.0,0,observed
81963,8,1.0,1,0.366,102,1.0,0,observed
81964,8,0.0,0,0.512,103,1.0,0,observed
81965,8,1.0,1,0.417,103,0.0,0,observed
81966,8,0.0,0,0.428,104,0.0,0,observed
81967,8,1.0,1,0.57,104,1.0,0,observed
81968,8,0.0,0,0.613,105,1.0,0,observed
81969,8,1.0,1,0.461,105,1.0,0,observed
81970,8,0.0,0,0.765,106,0.0,0,observed
81971,8,1.0,1,0.431,106,1.0,0,observed
81972,8,1.0,0,0.62,107,1.0,0,observed
81973,8,1.0,1,0.426,107,1.0,0,observed
81974,8,1.0,0,0.382,108,1.0,0,observed
81975,8,1.0,1,0.41,108,1.0,0,observed
81976,8,1.0,0,0.39,109,1.0,0,observed
81977,8,1.0,1,0.396,109,1.0,0,observed
81978,8,1.0,0,0.539,110,1.0,0,observed
81979,8,1.0,1,0.36,110,1.0,0,observed
81980,8,1.0,0,0.53,111,1.0,0,observed
81981,8,1.0,1,0.425,111,1.0,0,observed
81982,8,1.0,0,0.53,112,1.0,0,observed
81983,8,1.0,1,0.477,112,0.0,0,observed
81984,8,1.0,0,0.507,113,1.0,0,observed
81985,8,1.0,1,0.57,113,1.0,0,observed
81986,8,1.0,0,0.47,114,0.0,0,observed
81987,8,1.0,1,0.632,114,1.0,0,observed
81988,8,0.0,0,0.456,115,0.0,0,observed
81989,8,0.0,1,1.163,115,0.0,0,observed
81990,8,0.0,0,0.455,116,0.0,0,observed
81991,8,1.0,1,0.756,116,1.0,0,observed
81992,8,0.0,0,0.423,117,0.0,0,observed
81993,8,1.0,1,0.299,117,1.0,0,observed
81994,8,1.0,0,0.747,118,1.0,0,observed
81995,8,1.0,1,0.308,118,1.0,0,observed
81996,8,1.0,0,0.439,119,1.0,0,observed
81997,8,1.0,1,0.333,119,1.0,0,observed
81998,8,1.0,0,0.452,120,1.0,0,observed
81999,8,1.0,1,0.324,120,1.0,0,observed
82000,8,0.0,0,0.391,121,0.0,0,observed
82001,8,0.0,1,0.377,121,0.0,0,observed
82002,8,1.0,0,0.372,122,0.0,0,observed
82003,8,0.0,1,0.364,122,1.0,0,observed
82004,8,0.0,0,0.713,123,1.0,0,observed
82005,8,1.0,1,0.469,123,1.0,0,observed
82006,8,0.0,0,0.289,124,0.0,0,observed
82007,8,1.0,1,0.326,124,0.0,0,observed
82008,8,0.0,0,0.331,125,0.0,0,observed
82009,8,1.0,1,0.262,125,1.0,0,observed
82010,8,1.0,0,0.483,126,0.0,0,observed
82011,8,1.0,1,0.237,126,1.0,0,observed
82012,8,1.0,0,0.53,127,1.0,0,observed
82013,8,1.0,1,0.247,127,1.0,0,observed
82014,8,1.0,0,0.417,128,0.0,0,observed
82015,8,1.0,1,0.282,128,0.0,0,observed
82016,8,0.0,0,0.381,129,0.0,0,observed
82017,8,0.0,1,0.291,129,1.0,0,observed
82018,8,1.0,0,0.418,130,0.0,0,observed
82019,8,0.0,1,0.264,130,0.0,0,observed
82020,8,1.0,0,0.496,131,0.0,0,observed
82021,8,1.0,1,0.234,131,1.0,0,observed
82022,8,0.0,0,0.366,132,1.0,0,observed
82023,8,0.0,1,0.177,132,0.0,0,observed
82024,8,0.0,0,0.397,133,0.0,0,observed
82025,8,1.0,1,0.356,133,1.0,0,observed
82026,8,0.0,0,0.402,134,1.0,0,observed
82027,8,1.0,1,0.236,134,1.0,0,observed
82028,8,0.0,0,0.424,135,0.0,0,observed
82029,8,1.0,1,0.447,135,0.0,0,observed
82030,8,0.0,0,0.401,136,0.0,0,observed
82031,8,1.0,1,0.347,136,1.0,0,observed
82032,8,1.0,0,0.448,137,1.0,0,observed
82033,8,1.0,1,0.466,137,0.0,0,observed
82034,8,1.0,0,0.464,138,0.0,0,observed
82035,8,0.0,1,0.253,138,0.0,0,observed
82036,8,0.0,0,0.825,139,1.0,0,observed
82037,8,1.0,1,0.388,139,1.0,0,observed
82038,8,0.0,0,0.438,140,1.0,0,observed
82039,8,1.0,1,0.417,140,0.0,0,observed
82040,8,0.0,0,0.589,141,0.0,0,observed
82041,8,1.0,1,0.324,141,1.0,0,observed
82042,8,0.0,0,0.933,142,0.0,0,observed
82043,8,1.0,1,0.478,142,1.0,0,observed
82044,8,0.0,0,0.961,143,0.0,0,observed
82045,8,1.0,1,0.434,143,0.0,0,observed
82046,8,1.0,0,0.857,144,0.0,0,observed
82047,8,1.0,1,0.454,144,1.0,0,observed
82048,8,1.0,0,1.07,145,1.0,0,observed
82049,8,1.0,1,0.447,145,1.0,0,observed
82050,8,1.0,0,0.889,146,1.0,0,observed
82051,8,1.0,1,1.036,146,1.0,0,observed
82052,8,1.0,0,0.46,147,1.0,0,observed
82053,8,1.0,1,0.277,147,0.0,0,observed
82054,8,1.0,0,0.92,148,1.0,0,observed
82055,8,1.0,1,0.814,148,0.0,0,observed
82056,8,1.0,0,0.821,149,1.0,0,observed
82057,8,0.0,1,1.163,149,1.0,0,observed
82058,8,1.0,0,0.689,150,1.0,0,observed
82059,8,0.0,1,0.626,150,0.0,0,observed
82060,8,1.0,0,1.289,151,1.0,0,observed
82061,8,0.0,1,0.38,151,1.0,0,observed
82062,8,1.0,0,0.963,152,1.0,0,observed
82063,8,0.0,1,0.27,152,0.0,0,observed
82064,8,1.0,0,0.811,153,1.0,0,observed
82065,8,1.0,1,0.528,153,1.0,0,observed
82066,8,1.0,0,0.867,154,1.0,0,observed
82067,8,1.0,1,0.573,154,1.0,0,observed
82068,8,1.0,0,0.876,155,1.0,0,observed
82069,8,1.0,1,0.299,155,1.0,0,observed
82070,8,1.0,0,0.785,156,1.0,0,observed
82071,8,1.0,1,0.373,156,1.0,0,observed
82072,8,1.0,0,0.934,157,1.0,0,observed
82073,8,1.0,1,0.378,157,1.0,0,observed
82074,8,1.0,0,0.729,158,1.0,0,observed
82075,8,1.0,1,0.387,158,1.0,0,observed
82076,8,1.0,0,0.886,159,1.0,0,observed
82077,8,1.0,1,0.413,159,1.0,0,observed
82078,8,1.0,0,0.804,160,1.0,0,observed
82079,8,1.0,1,0.502,160,1.0,0,observed
0,1,0.0,0,0.6079297373133765,1,0.0,1,simulated
1,1,1.0,0,0.2639297373172691,2,1.0,1,simulated
2,1,1.0,0,0.2639297373172691,3,1.0,1,simulated
3,1,1.0,0,0.30092973731728145,4,0.0,1,simulated
4,1,1.0,0,0.7729297373174391,5,1.0,1,simulated
5,1,1.0,0,0.4559297373173332,6,1.0,1,simulated
6,1,0.0,0,0.41192973731331106,7,1.0,1,simulated
7,1,1.0,0,0.59592973731738,8,1.0,1,simulated
8,1,1.0,0,0.43092973731732487,9,1.0,1,simulated
9,1,1.0,0,0.2989297373172808,10,1.0,1,simulated
10,1,0.0,0,1.0909297373135378,11,0.0,1,simulated
11,1,1.0,0,0.4549297373173329,12,1.0,1,simulated
12,1,0.0,0,0.25592973731325896,13,1.0,1,simulated
13,1,0.0,0,0.7369297373134196,14,0.0,1,simulated
14,1,1.0,0,0.26492973731726943,15,1.0,1,simulated
15,1,1.0,0,0.7869297373174438,16,0.0,1,simulated
16,1,1.0,0,0.40392973731731585,17,1.0,1,simulated
17,1,1.0,0,0.37192973731730516,18,1.0,1,simulated
18,1,0.0,0,0.2809297373132673,19,1.0,1,simulated
19,1,1.0,0,0.4119297373173185,20,1.0,1,simulated
20,1,0.0,0,0.26492973731326197,21,1.0,1,simulated
21,1,1.0,0,0.28292973731727544,22,1.0,1,simulated
22,1,0.0,0,0.4279297373133164,23,0.0,1,simulated
23,1,0.0,0,0.330929737313284,24,1.0,1,simulated
24,1,1.0,0,0.8659297373174701,25,0.0,1,simulated
25,1,0.0,0,0.7729297373134316,26,1.0,1,simulated
26,1,0.0,0,0.5939297373133718,27,1.0,1,simulated
27,1,1.0,0,0.3729297373173055,28,0.0,1,simulated
28,1,0.0,0,0.8179297373134466,29,0.0,1,simulated
29,1,1.0,0,0.42492973731732286,30,0.0,1,simulated
30,1,0.0,0,0.35592973731329236,31,0.0,1,simulated
31,1,0.0,0,0.6509297373133909,32,0.0,1,simulated
32,1,0.0,0,0.5439297373133551,33,0.0,1,simulated
33,1,1.0,0,0.2609297373172681,34,0.0,1,simulated
34,1,0.0,0,0.36392973731329503,35,0.0,1,simulated
35,1,1.0,0,0.44192973731732854,36,1.0,1,simulated
36,1,1.0,0,0.8619297373174688,37,0.0,1,simulated
37,1,1.0,0,0.43092973731732487,38,0.0,1,simulated
38,1,1.0,0,0.3019297373172818,39,1.0,1,simulated
39,1,1.0,0,0.36292973731730216,40,0.0,1,simulated
40,1,1.0,0,0.32492973731728947,41,1.0,1,simulated
41,1,1.0,0,0.4109297373173182,42,1.0,1,simulated
